studyid,siteid,usubjid,trta,trtan,age,agegr1,agegr1n,race,racen,sex,saffl,trtsdt,trtedt,astdt,astdtf,astdy,aendt,aendy,adurn,aduru,aeterm,aellt,aelltcd,aedecod,aeptcd,aehlt,aehltcd,aehlgt,aehlgtcd,aebodsys,aesoc,aesoccd,aesev,aeser,aescan,aescong,aesdisab,aesdth,aeshosp,aeslife,aesod,aerel,aeacn,aeout,aeseq,trtemfl,aoccfl,aoccsfl,aoccpfl,aocc02fl,aocc03fl,aocc04fl,cq01nam,aocc01fl
CDISCPILOT01,701,01-701-1015,Placebo,0,63,<65,1,WHITE,1,F,Y,2014-01-02,2014-07-02,2014-01-03,,2,NA,NA,NA,,APPLICATION SITE ERYTHEMA,APPLICATION SITE REDNESS,NA,APPLICATION SITE ERYTHEMA,NA,HLT_0617,NA,HLGT_0152,NA,GENERAL DISORDERS AND ADMINISTRATION SITE CONDITIONS,GENERAL DISORDERS AND ADMINISTRATION SITE CONDITIONS,NA,MILD,N,N,N,N,N,N,N,N,PROBABLE,,NOT RECOVERED/NOT RESOLVED,1,Y,Y,Y,Y,,,,DERMATOLOGIC EVENTS,Y
CDISCPILOT01,701,01-701-1015,Placebo,0,63,<65,1,WHITE,1,F,Y,2014-01-02,2014-07-02,2014-01-03,,2,NA,NA,NA,,APPLICATION SITE PRURITUS,APPLICATION SITE ITCHING,NA,APPLICATION SITE PRURITUS,NA,HLT_0317,NA,HLGT_0338,NA,GENERAL DISORDERS AND ADMINISTRATION SITE CONDITIONS,GENERAL DISORDERS AND ADMINISTRATION SITE CONDITIONS,NA,MILD,N,N,N,N,N,N,N,N,PROBABLE,,NOT RECOVERED/NOT RESOLVED,2,Y,,,Y,,,,DERMATOLOGIC EVENTS,
CDISCPILOT01,701,01-701-1015,Placebo,0,63,<65,1,WHITE,1,F,Y,2014-01-02,2014-07-02,2014-01-09,,8,2014-01-11,10,3,DAY,DIARRHOEA,DIARRHEA,NA,DIARRHOEA,NA,HLT_0148,NA,HLGT_0588,NA,GASTROINTESTINAL DISORDERS,GASTROINTESTINAL DISORDERS,NA,MILD,N,N,N,N,N,N,N,N,REMOTE,,RECOVERED/RESOLVED,3,Y,,Y,Y,,,,,
CDISCPILOT01,701,01-701-1023,Placebo,0,64,<65,1,WHITE,1,M,Y,2012-08-05,2012-09-01,2012-08-07,,3,2012-08-30,26,24,DAY,ERYTHEMA,ERYTHEMA,NA,ERYTHEMA,NA,HLT_0284,NA,HLGT_0192,NA,SKIN AND SUBCUTANEOUS TISSUE DISORDERS,SKIN AND SUBCUTANEOUS TISSUE DISORDERS,NA,MILD,N,N,N,N,N,N,N,N,POSSIBLE,,NOT RECOVERED/NOT RESOLVED,1,Y,Y,Y,Y,,,,DERMATOLOGIC EVENTS,Y
CDISCPILOT01,701,01-701-1023,Placebo,0,64,<65,1,WHITE,1,M,Y,2012-08-05,2012-09-01,2012-08-07,,3,NA,NA,NA,,ERYTHEMA,LOCALIZED ERYTHEMA,NA,ERYTHEMA,NA,HLT_0284,NA,HLGT_0192,NA,SKIN AND SUBCUTANEOUS TISSUE DISORDERS,SKIN AND SUBCUTANEOUS TISSUE DISORDERS,NA,MODERATE,N,N,N,N,N,N,N,N,PROBABLE,,NOT RECOVERED/NOT RESOLVED,2,Y,,,,,,,DERMATOLOGIC EVENTS,
CDISCPILOT01,701,01-701-1023,Placebo,0,64,<65,1,WHITE,1,M,Y,2012-08-05,2012-09-01,2012-08-26,,22,NA,NA,NA,,ATRIOVENTRICULAR BLOCK SECOND DEGREE,AV BLOCK SECOND DEGREE,NA,ATRIOVENTRICULAR BLOCK SECOND DEGREE,NA,HLT_0415,NA,HLGT_0086,NA,CARDIAC DISORDERS,CARDIAC DISORDERS,NA,MILD,N,N,N,N,N,N,N,N,POSSIBLE,,NOT RECOVERED/NOT RESOLVED,3,Y,,Y,Y,,,,,
CDISCPILOT01,701,01-701-1023,Placebo,0,64,<65,1,WHITE,1,M,Y,2012-08-05,2012-09-01,2012-08-07,,3,2012-08-30,26,24,DAY,ERYTHEMA,ERYTHEMA,NA,ERYTHEMA,NA,HLT_0284,NA,HLGT_0192,NA,SKIN AND SUBCUTANEOUS TISSUE DISORDERS,SKIN AND SUBCUTANEOUS TISSUE DISORDERS,NA,MILD,N,N,N,N,N,N,N,N,POSSIBLE,,RECOVERED/RESOLVED,4,Y,,,,,,,DERMATOLOGIC EVENTS,
CDISCPILOT01,701,01-701-1028,Xanomeline High Dose,81,71,65-80,2,WHITE,1,M,Y,2013-07-19,2014-01-14,2013-07-21,,3,NA,NA,NA,,APPLICATION SITE ERYTHEMA,APPLICATION SITE ERYTHEMA,NA,APPLICATION SITE ERYTHEMA,NA,HLT_0617,NA,HLGT_0152,NA,GENERAL DISORDERS AND ADMINISTRATION SITE CONDITIONS,GENERAL DISORDERS AND ADMINISTRATION SITE CONDITIONS,NA,MILD,N,N,N,N,N,N,N,N,POSSIBLE,,NOT RECOVERED/NOT RESOLVED,1,Y,Y,Y,Y,,,,DERMATOLOGIC EVENTS,Y
CDISCPILOT01,701,01-701-1028,Xanomeline High Dose,81,71,65-80,2,WHITE,1,M,Y,2013-07-19,2014-01-14,2013-08-08,,21,NA,NA,NA,,APPLICATION SITE PRURITUS,APPLICATION SITE ITCHING,NA,APPLICATION SITE PRURITUS,NA,HLT_0317,NA,HLGT_0338,NA,GENERAL DISORDERS AND ADMINISTRATION SITE CONDITIONS,GENERAL DISORDERS AND ADMINISTRATION SITE CONDITIONS,NA,MILD,N,N,N,N,N,N,N,N,PROBABLE,,NOT RECOVERED/NOT RESOLVED,2,Y,,,Y,,,,DERMATOLOGIC EVENTS,
CDISCPILOT01,701,01-701-1034,Xanomeline High Dose,81,77,65-80,2,WHITE,1,F,Y,2014-07-01,2014-12-30,2014-08-27,,58,NA,NA,NA,,APPLICATION SITE PRURITUS,APPLICATION SITE ITCHING,NA,APPLICATION SITE PRURITUS,NA,HLT_0317,NA,HLGT_0338,NA,GENERAL DISORDERS AND ADMINISTRATION SITE CONDITIONS,GENERAL DISORDERS AND ADMINISTRATION SITE CONDITIONS,NA,MILD,N,N,N,N,N,N,N,N,PROBABLE,,NOT RECOVERED/NOT RESOLVED,1,Y,Y,Y,Y,,,,DERMATOLOGIC EVENTS,Y
CDISCPILOT01,701,01-701-1034,Xanomeline High Dose,81,77,65-80,2,WHITE,1,F,Y,2014-07-01,2014-12-30,2014-11-02,,125,NA,NA,NA,,FATIGUE,FATIGUE,NA,FATIGUE,NA,HLT_0043,NA,HLGT_0181,NA,GENERAL DISORDERS AND ADMINISTRATION SITE CONDITIONS,GENERAL DISORDERS AND ADMINISTRATION SITE CONDITIONS,NA,MILD,N,N,N,N,N,N,N,N,POSSIBLE,,NOT RECOVERED/NOT RESOLVED,2,Y,,,Y,,,,,
CDISCPILOT01,701,01-701-1047,Placebo,0,85,>80,3,WHITE,1,F,Y,2013-02-12,2013-03-09,2013-02-12,,1,2013-02-12,1,1,DAY,HIATUS HERNIA,HERNIA HIATAL,NA,HIATUS HERNIA,NA,HLT_0159,NA,HLGT_0109,NA,GASTROINTESTINAL DISORDERS,GASTROINTESTINAL DISORDERS,NA,MODERATE,N,N,N,N,N,N,N,N,NONE,,NOT RECOVERED/NOT RESOLVED,1,Y,Y,Y,Y,,,,,
CDISCPILOT01,701,01-701-1047,Placebo,0,85,>80,3,WHITE,1,F,Y,2013-02-12,2013-03-09,2013-02-12,,1,2013-02-12,1,1,DAY,HIATUS HERNIA,HERNIA HIATAL,NA,HIATUS HERNIA,NA,HLT_0159,NA,HLGT_0109,NA,GASTROINTESTINAL DISORDERS,GASTROINTESTINAL DISORDERS,NA,MODERATE,N,N,N,N,N,N,N,N,NONE,,RECOVERED/RESOLVED,2,Y,,,,,,,,
CDISCPILOT01,701,01-701-1047,Placebo,0,85,>80,3,WHITE,1,F,Y,2013-02-12,2013-03-09,2013-03-06,,23,NA,NA,NA,,UPPER RESPIRATORY TRACT INFECTION,UPPER RESPIRATORY INFECTION,NA,UPPER RESPIRATORY TRACT INFECTION,NA,HLT_0520,NA,HLGT_0489,NA,INFECTIONS AND INFESTATIONS,INFECTIONS AND INFESTATIONS,NA,MILD,N,N,N,N,N,N,N,N,NONE,,NOT RECOVERED/NOT RESOLVED,3,Y,,Y,Y,,,,,
CDISCPILOT01,701,01-701-1047,Placebo,0,85,>80,3,WHITE,1,F,Y,2013-02-12,2013-03-09,2013-03-10,,27,NA,NA,NA,,BUNDLE BRANCH BLOCK LEFT,LEFT BUNDLE BRANCH BLOCK,NA,BUNDLE BRANCH BLOCK LEFT,NA,HLT_0281,NA,HLGT_0721,NA,CARDIAC DISORDERS,CARDIAC DISORDERS,NA,MILD,N,N,N,N,N,N,N,N,NONE,,NOT RECOVERED/NOT RESOLVED,4,Y,,Y,Y,,,,,
CDISCPILOT01,701,01-701-1097,Xanomeline Low Dose,54,68,65-80,2,WHITE,1,M,Y,2014-01-01,2014-07-09,2014-01-03,,3,NA,NA,NA,,ERYTHEMA,ERYTHEMA,NA,ERYTHEMA,NA,HLT_0284,NA,HLGT_0192,NA,SKIN AND SUBCUTANEOUS TISSUE DISORDERS,SKIN AND SUBCUTANEOUS TISSUE DISORDERS,NA,MILD,N,N,N,N,N,N,N,N,POSSIBLE,,NOT RECOVERED/NOT RESOLVED,1,Y,Y,Y,Y,,,,DERMATOLOGIC EVENTS,Y
CDISCPILOT01,701,01-701-1097,Xanomeline Low Dose,54,68,65-80,2,WHITE,1,M,Y,2014-01-01,2014-07-09,2014-02-20,,51,2014-02-20,51,1,DAY,PRURITUS GENERALISED,GENERALIZED PRURITUS,NA,PRURITUS GENERALISED,NA,HLT_0123,NA,HLGT_0689,NA,SKIN AND SUBCUTANEOUS TISSUE DISORDERS,SKIN AND SUBCUTANEOUS TISSUE DISORDERS,NA,MODERATE,N,N,N,N,N,N,N,N,POSSIBLE,,RECOVERED/RESOLVED,2,Y,,,Y,,,,DERMATOLOGIC EVENTS,
CDISCPILOT01,701,01-701-1097,Xanomeline Low Dose,54,68,65-80,2,WHITE,1,M,Y,2014-01-01,2014-07-09,2014-02-20,,51,2014-02-22,53,3,DAY,APPLICATION SITE VESICLES,APPLICATION SITE BLISTER,NA,APPLICATION SITE VESICLES,NA,HLT_0180,NA,HLGT_0576,NA,GENERAL DISORDERS AND ADMINISTRATION SITE CONDITIONS,GENERAL DISORDERS AND ADMINISTRATION SITE CONDITIONS,NA,MILD,N,N,N,N,N,N,N,N,PROBABLE,,RECOVERED/RESOLVED,3,Y,,Y,Y,,,,DERMATOLOGIC EVENTS,
CDISCPILOT01,701,01-701-1097,Xanomeline Low Dose,54,68,65-80,2,WHITE,1,M,Y,2014-01-01,2014-07-09,2014-02-21,,52,NA,NA,NA,,APPLICATION SITE PRURITUS,APPLICATION SITE ITCHING,NA,APPLICATION SITE PRURITUS,NA,HLT_0317,NA,HLGT_0338,NA,GENERAL DISORDERS AND ADMINISTRATION SITE CONDITIONS,GENERAL DISORDERS AND ADMINISTRATION SITE CONDITIONS,NA,MILD,N,N,N,N,N,N,N,N,POSSIBLE,,NOT RECOVERED/NOT RESOLVED,4,Y,,,Y,,,,DERMATOLOGIC EVENTS,
CDISCPILOT01,701,01-701-1097,Xanomeline Low Dose,54,68,65-80,2,WHITE,1,M,Y,2014-01-01,2014-07-09,2014-03-21,,80,2014-03-21,80,1,DAY,PRURITUS GENERALISED,GENERALIZED PRURITUS,NA,PRURITUS GENERALISED,NA,HLT_0123,NA,HLGT_0689,NA,SKIN AND SUBCUTANEOUS TISSUE DISORDERS,SKIN AND SUBCUTANEOUS TISSUE DISORDERS,NA,MODERATE,N,N,N,N,N,N,N,N,POSSIBLE,,RECOVERED/RESOLVED,5,Y,,,,,,,DERMATOLOGIC EVENTS,
CDISCPILOT01,701,01-701-1097,Xanomeline Low Dose,54,68,65-80,2,WHITE,1,M,Y,2014-01-01,2014-07-09,2014-03-31,,90,2014-03-31,90,1,DAY,PRURITUS GENERALISED,GENERALIZED PRURITUS,NA,PRURITUS GENERALISED,NA,HLT_0123,NA,HLGT_0689,NA,SKIN AND SUBCUTANEOUS TISSUE DISORDERS,SKIN AND SUBCUTANEOUS TISSUE DISORDERS,NA,MODERATE,N,N,N,N,N,N,N,N,POSSIBLE,,RECOVERED/RESOLVED,6,Y,,,,,,,DERMATOLOGIC EVENTS,
CDISCPILOT01,701,01-701-1097,Xanomeline Low Dose,54,68,65-80,2,WHITE,1,M,Y,2014-01-01,2014-07-09,2014-04-19,,109,2014-04-20,110,2,DAY,PRURITUS GENERALISED,GENERALIZED PRURITUS,NA,PRURITUS GENERALISED,NA,HLT_0123,NA,HLGT_0689,NA,SKIN AND SUBCUTANEOUS TISSUE DISORDERS,SKIN AND SUBCUTANEOUS TISSUE DISORDERS,NA,MODERATE,N,N,N,N,N,N,N,N,POSSIBLE,,RECOVERED/RESOLVED,7,Y,,,,,,,DERMATOLOGIC EVENTS,
CDISCPILOT01,701,01-701-1097,Xanomeline Low Dose,54,68,65-80,2,WHITE,1,M,Y,2014-01-01,2014-07-09,2014-04-19,,109,2014-04-22,112,4,DAY,PHARYNGOLARYNGEAL PAIN,SORE THROAT,NA,PHARYNGOLARYNGEAL PAIN,NA,HLT_0130,NA,HLGT_0402,NA,"RESPIRATORY, THORACIC AND MEDIASTINAL DISORDERS","RESPIRATORY, THORACIC AND MEDIASTINAL DISORDERS",NA,MILD,N,N,N,N,N,N,N,N,NONE,,RECOVERED/RESOLVED,8,Y,,Y,Y,,,,,
CDISCPILOT01,701,01-701-1097,Xanomeline Low Dose,54,68,65-80,2,WHITE,1,M,Y,2014-01-01,2014-07-09,2014-04-19,,109,2014-04-22,112,4,DAY,NASAL CONGESTION,NASAL CONGESTION,NA,NASAL CONGESTION,NA,HLT_0118,NA,HLGT_0549,NA,"RESPIRATORY, THORACIC AND MEDIASTINAL DISORDERS","RESPIRATORY, THORACIC AND MEDIASTINAL DISORDERS",NA,MILD,N,N,N,N,N,N,N,N,NONE,,RECOVERED/RESOLVED,9,Y,,,Y,,,,,
CDISCPILOT01,701,01-701-1097,Xanomeline Low Dose,54,68,65-80,2,WHITE,1,M,Y,2014-01-01,2014-07-09,2014-02-21,,52,NA,NA,NA,,APPLICATION SITE PRURITUS,APPLICATION SITE ITCHING,NA,APPLICATION SITE PRURITUS,NA,HLT_0317,NA,HLGT_0338,NA,GENERAL DISORDERS AND ADMINISTRATION SITE CONDITIONS,GENERAL DISORDERS AND ADMINISTRATION SITE CONDITIONS,NA,MODERATE,N,N,N,N,N,N,N,N,POSSIBLE,,NOT RECOVERED/NOT RESOLVED,10,Y,,,,,,,DERMATOLOGIC EVENTS,
CDISCPILOT01,701,01-701-1111,Xanomeline Low Dose,54,81,>80,3,WHITE,1,F,Y,2012-09-07,2012-09-16,2012-09-02,,-5,2012-09-07,1,6,DAY,ERYTHEMA,ERYTHEMA,NA,ERYTHEMA,NA,HLT_0284,NA,HLGT_0192,NA,SKIN AND SUBCUTANEOUS TISSUE DISORDERS,SKIN AND SUBCUTANEOUS TISSUE DISORDERS,NA,MILD,N,N,N,N,N,N,N,N,NONE,,NOT RECOVERED/NOT RESOLVED,1,N,,,,,,,DERMATOLOGIC EVENTS,
CDISCPILOT01,701,01-701-1111,Xanomeline Low Dose,54,81,>80,3,WHITE,1,F,Y,2012-09-07,2012-09-16,2012-09-02,,-5,2012-09-07,1,6,DAY,PRURITUS,ITCHING,NA,PRURITUS,NA,HLT_0778,NA,HLGT_0695,NA,SKIN AND SUBCUTANEOUS TISSUE DISORDERS,SKIN AND SUBCUTANEOUS TISSUE DISORDERS,NA,MILD,N,N,N,N,N,N,N,N,NONE,,NOT RECOVERED/NOT RESOLVED,2,N,,,,,,,DERMATOLOGIC EVENTS,
CDISCPILOT01,701,01-701-1111,Xanomeline Low Dose,54,81,>80,3,WHITE,1,F,Y,2012-09-07,2012-09-16,2012-07-08,,-61,NA,NA,NA,,LOCALISED INFECTION,LOCALIZED INFECTION,NA,LOCALISED INFECTION,NA,HLT_0435,NA,HLGT_0557,NA,INFECTIONS AND INFESTATIONS,INFECTIONS AND INFESTATIONS,NA,MODERATE,N,N,N,N,N,N,N,N,NONE,,NOT RECOVERED/NOT RESOLVED,3,N,,,,,,,,
CDISCPILOT01,701,01-701-1111,Xanomeline Low Dose,54,81,>80,3,WHITE,1,F,Y,2012-09-07,2012-09-16,2012-09-02,,-5,2012-09-07,1,6,DAY,ERYTHEMA,ERYTHEMA,NA,ERYTHEMA,NA,HLT_0284,NA,HLGT_0192,NA,SKIN AND SUBCUTANEOUS TISSUE DISORDERS,SKIN AND SUBCUTANEOUS TISSUE DISORDERS,NA,MILD,N,N,N,N,N,N,N,N,NONE,,RECOVERED/RESOLVED,4,N,,,,,,,DERMATOLOGIC EVENTS,
CDISCPILOT01,701,01-701-1111,Xanomeline Low Dose,54,81,>80,3,WHITE,1,F,Y,2012-09-07,2012-09-16,2012-09-02,,-5,2012-09-07,1,6,DAY,PRURITUS,ITCHING,NA,PRURITUS,NA,HLT_0778,NA,HLGT_0695,NA,SKIN AND SUBCUTANEOUS TISSUE DISORDERS,SKIN AND SUBCUTANEOUS TISSUE DISORDERS,NA,MILD,N,N,N,N,N,N,N,N,NONE,,RECOVERED/RESOLVED,5,N,,,,,,,DERMATOLOGIC EVENTS,
CDISCPILOT01,701,01-701-1111,Xanomeline Low Dose,54,81,>80,3,WHITE,1,F,Y,2012-09-07,2012-09-16,2012-09-07,,1,NA,NA,NA,,MICTURITION URGENCY,URINARY URGENCY,NA,MICTURITION URGENCY,NA,HLT_0294,NA,HLGT_0483,NA,RENAL AND URINARY DISORDERS,RENAL AND URINARY DISORDERS,NA,MILD,N,N,N,N,N,N,N,N,NONE,,NOT RECOVERED/NOT RESOLVED,6,Y,Y,Y,Y,,,,,
CDISCPILOT01,701,01-701-1111,Xanomeline Low Dose,54,81,>80,3,WHITE,1,F,Y,2012-09-07,2012-09-16,2012-09-13,,7,NA,NA,NA,,ARTHRALGIA,GENERALIZED JOINT PAIN,NA,ARTHRALGIA,NA,HLT_0375,NA,HLGT_0610,NA,MUSCULOSKELETAL AND CONNECTIVE TISSUE DISORDERS,MUSCULOSKELETAL AND CONNECTIVE TISSUE DISORDERS,NA,MODERATE,N,N,N,N,N,N,N,N,NONE,,NOT RECOVERED/NOT RESOLVED,7,Y,,Y,Y,,,,,
CDISCPILOT01,701,01-701-1111,Xanomeline Low Dose,54,81,>80,3,WHITE,1,F,Y,2012-09-07,2012-09-16,2012-09-13,,7,NA,NA,NA,,CELLULITIS,CELLULITIS OF LEG,NA,CELLULITIS,NA,HLT_0613,NA,HLGT_0066,NA,INFECTIONS AND INFESTATIONS,INFECTIONS AND INFESTATIONS,NA,MODERATE,N,N,N,N,N,N,N,N,NONE,,NOT RECOVERED/NOT RESOLVED,8,Y,,Y,Y,,,,,
CDISCPILOT01,701,01-701-1115,Xanomeline Low Dose,54,84,>80,3,WHITE,1,M,Y,2012-11-30,2013-01-23,2012-12-02,,3,NA,NA,NA,,APPLICATION SITE ERYTHEMA,APPLICATION SITE REDNESS,NA,APPLICATION SITE ERYTHEMA,NA,HLT_0617,NA,HLGT_0152,NA,GENERAL DISORDERS AND ADMINISTRATION SITE CONDITIONS,GENERAL DISORDERS AND ADMINISTRATION SITE CONDITIONS,NA,MILD,N,N,N,N,N,N,N,N,PROBABLE,,NOT RECOVERED/NOT RESOLVED,1,Y,Y,Y,Y,,,,DERMATOLOGIC EVENTS,Y
CDISCPILOT01,701,01-701-1115,Xanomeline Low Dose,54,84,>80,3,WHITE,1,M,Y,2012-11-30,2013-01-23,2012-12-02,,3,NA,NA,NA,,APPLICATION SITE PRURITUS,APPLICATION SITE ITCHING,NA,APPLICATION SITE PRURITUS,NA,HLT_0317,NA,HLGT_0338,NA,GENERAL DISORDERS AND ADMINISTRATION SITE CONDITIONS,GENERAL DISORDERS AND ADMINISTRATION SITE CONDITIONS,NA,MILD,N,N,N,N,N,N,N,N,PROBABLE,,NOT RECOVERED/NOT RESOLVED,2,Y,,,Y,,,,DERMATOLOGIC EVENTS,
CDISCPILOT01,701,01-701-1115,Xanomeline Low Dose,54,84,>80,3,WHITE,1,M,Y,2012-11-30,2013-01-23,2012-12-26,,27,2012-12-26,27,1,DAY,APPLICATION SITE IRRITATION,APPLICATION SITE BURNING,NA,APPLICATION SITE IRRITATION,NA,HLT_0061,NA,HLGT_0346,NA,GENERAL DISORDERS AND ADMINISTRATION SITE CONDITIONS,GENERAL DISORDERS AND ADMINISTRATION SITE CONDITIONS,NA,MILD,N,N,N,N,N,N,N,N,POSSIBLE,,NOT RECOVERED/NOT RESOLVED,3,Y,,,Y,,,,DERMATOLOGIC EVENTS,
CDISCPILOT01,701,01-701-1115,Xanomeline Low Dose,54,84,>80,3,WHITE,1,M,Y,2012-11-30,2013-01-23,2012-12-26,,27,2012-12-26,27,1,DAY,APPLICATION SITE IRRITATION,APPLICATION SITE BURNING,NA,APPLICATION SITE IRRITATION,NA,HLT_0061,NA,HLGT_0346,NA,GENERAL DISORDERS AND ADMINISTRATION SITE CONDITIONS,GENERAL DISORDERS AND ADMINISTRATION SITE CONDITIONS,NA,MILD,N,N,N,N,N,N,N,N,POSSIBLE,,RECOVERED/RESOLVED,4,Y,,,,,,,DERMATOLOGIC EVENTS,
CDISCPILOT01,701,01-701-1115,Xanomeline Low Dose,54,84,>80,3,WHITE,1,M,Y,2012-11-30,2013-01-23,2012-12-02,,3,NA,NA,NA,,APPLICATION SITE ERYTHEMA,APPLICATION SITE REDNESS,NA,APPLICATION SITE ERYTHEMA,NA,HLT_0617,NA,HLGT_0152,NA,GENERAL DISORDERS AND ADMINISTRATION SITE CONDITIONS,GENERAL DISORDERS AND ADMINISTRATION SITE CONDITIONS,NA,MODERATE,N,N,N,N,N,N,N,N,PROBABLE,,NOT RECOVERED/NOT RESOLVED,5,Y,,,,,,,DERMATOLOGIC EVENTS,
CDISCPILOT01,701,01-701-1115,Xanomeline Low Dose,54,84,>80,3,WHITE,1,M,Y,2012-11-30,2013-01-23,2012-12-02,,3,NA,NA,NA,,APPLICATION SITE PRURITUS,APPLICATION SITE ITCHING,NA,APPLICATION SITE PRURITUS,NA,HLT_0317,NA,HLGT_0338,NA,GENERAL DISORDERS AND ADMINISTRATION SITE CONDITIONS,GENERAL DISORDERS AND ADMINISTRATION SITE CONDITIONS,NA,MODERATE,N,N,N,N,N,N,N,N,PROBABLE,,NOT RECOVERED/NOT RESOLVED,6,Y,,,,,,,DERMATOLOGIC EVENTS,
CDISCPILOT01,701,01-701-1115,Xanomeline Low Dose,54,84,>80,3,WHITE,1,M,Y,2012-11-30,2013-01-23,2013-01-14,,46,NA,NA,NA,,FATIGUE,FATIGUE,NA,FATIGUE,NA,HLT_0043,NA,HLGT_0181,NA,GENERAL DISORDERS AND ADMINISTRATION SITE CONDITIONS,GENERAL DISORDERS AND ADMINISTRATION SITE CONDITIONS,NA,MODERATE,N,N,N,N,N,N,N,N,REMOTE,,NOT RECOVERED/NOT RESOLVED,7,Y,,,Y,,,,,
CDISCPILOT01,701,01-701-1115,Xanomeline Low Dose,54,84,>80,3,WHITE,1,M,Y,2012-11-30,2013-01-23,2013-01-19,,51,NA,NA,NA,,APPLICATION SITE IRRITATION,APPLICATION SITE BURNING,NA,APPLICATION SITE IRRITATION,NA,HLT_0061,NA,HLGT_0346,NA,GENERAL DISORDERS AND ADMINISTRATION SITE CONDITIONS,GENERAL DISORDERS AND ADMINISTRATION SITE CONDITIONS,NA,MODERATE,N,N,N,N,N,N,N,N,PROBABLE,,NOT RECOVERED/NOT RESOLVED,8,Y,,,,,,,DERMATOLOGIC EVENTS,
CDISCPILOT01,701,01-701-1115,Xanomeline Low Dose,54,84,>80,3,WHITE,1,M,Y,2012-11-30,2013-01-23,2013-01-19,,51,NA,NA,NA,,APPLICATION SITE DERMATITIS,APPLICATION SITE RASH,NA,APPLICATION SITE DERMATITIS,NA,HLT_0343,NA,HLGT_0241,NA,GENERAL DISORDERS AND ADMINISTRATION SITE CONDITIONS,GENERAL DISORDERS AND ADMINISTRATION SITE CONDITIONS,NA,MODERATE,N,N,N,N,N,N,N,N,PROBABLE,,NOT RECOVERED/NOT RESOLVED,9,Y,,,Y,,,,DERMATOLOGIC EVENTS,
CDISCPILOT01,701,01-701-1118,Placebo,0,52,<65,1,WHITE,1,M,Y,2014-03-12,2014-09-09,NA,,NA,NA,NA,NA,,COUGH,COUGH,NA,COUGH,NA,HLT_0701,NA,HLGT_0280,NA,"RESPIRATORY, THORACIC AND MEDIASTINAL DISORDERS","RESPIRATORY, THORACIC AND MEDIASTINAL DISORDERS",NA,MILD,N,N,N,N,N,N,N,N,NONE,,NOT RECOVERED/NOT RESOLVED,1,N,,,,,,,,
CDISCPILOT01,701,01-701-1130,Placebo,0,84,>80,3,WHITE,1,M,Y,2014-02-15,2014-08-16,2014-03-09,,23,2014-03-16,30,8,DAY,URINARY TRACT INFECTION,URINARY TRACT INFECTION,NA,URINARY TRACT INFECTION,NA,HLT_0161,NA,HLGT_0093,NA,INFECTIONS AND INFESTATIONS,INFECTIONS AND INFESTATIONS,NA,MILD,N,N,N,N,N,N,N,N,NONE,,NOT RECOVERED/NOT RESOLVED,1,Y,Y,Y,Y,,,,,
CDISCPILOT01,701,01-701-1130,Placebo,0,84,>80,3,WHITE,1,M,Y,2014-02-15,2014-08-16,2014-03-09,,23,2014-03-09,23,1,DAY,PYREXIA,FEVER,NA,PYREXIA,NA,HLT_0310,NA,HLGT_0652,NA,GENERAL DISORDERS AND ADMINISTRATION SITE CONDITIONS,GENERAL DISORDERS AND ADMINISTRATION SITE CONDITIONS,NA,MILD,N,N,N,N,N,N,N,N,NONE,,RECOVERED/RESOLVED,2,Y,,Y,Y,,,,,
CDISCPILOT01,701,01-701-1130,Placebo,0,84,>80,3,WHITE,1,M,Y,2014-02-15,2014-08-16,2014-03-09,,23,2014-03-16,30,8,DAY,URINARY TRACT INFECTION,URINARY TRACT INFECTION,NA,URINARY TRACT INFECTION,NA,HLT_0161,NA,HLGT_0093,NA,INFECTIONS AND INFESTATIONS,INFECTIONS AND INFESTATIONS,NA,MILD,N,N,N,N,N,N,N,N,NONE,,RECOVERED/RESOLVED,3,Y,,,,,,,,
CDISCPILOT01,701,01-701-1130,Placebo,0,84,>80,3,WHITE,1,M,Y,2014-02-15,2014-08-16,2014-05-09,,84,2014-05-09,84,1,DAY,EYE SWELLING,EYES SWOLLEN,NA,EYE SWELLING,NA,HLT_0008,NA,HLGT_0466,NA,EYE DISORDERS,EYE DISORDERS,NA,MILD,N,N,N,N,N,N,N,N,NONE,,RECOVERED/RESOLVED,4,Y,,Y,Y,,,,,
CDISCPILOT01,701,01-701-1130,Placebo,0,84,>80,3,WHITE,1,M,Y,2014-02-15,2014-08-16,2014-05-09,,84,2014-05-09,84,1,DAY,EYE ALLERGY,EYE ALLERGY,NA,EYE ALLERGY,NA,HLT_0256,NA,HLGT_0071,NA,EYE DISORDERS,EYE DISORDERS,NA,MILD,N,N,N,N,N,N,N,N,NONE,,RECOVERED/RESOLVED,5,Y,,,Y,,,,,
CDISCPILOT01,701,01-701-1130,Placebo,0,84,>80,3,WHITE,1,M,Y,2014-02-15,2014-08-16,2014-05-22,,97,NA,NA,NA,,EYE PRURITUS,EYE ITCHING,NA,EYE PRURITUS,NA,HLT_0523,NA,HLGT_0240,NA,EYE DISORDERS,EYE DISORDERS,NA,MILD,N,N,N,N,N,N,N,N,REMOTE,,NOT RECOVERED/NOT RESOLVED,6,Y,,,Y,,,,,
CDISCPILOT01,701,01-701-1130,Placebo,0,84,>80,3,WHITE,1,M,Y,2014-02-15,2014-08-16,2014-05-22,,97,NA,NA,NA,,PRURITUS,ITCHING BOTH HANDS,NA,PRURITUS,NA,HLT_0778,NA,HLGT_0695,NA,SKIN AND SUBCUTANEOUS TISSUE DISORDERS,SKIN AND SUBCUTANEOUS TISSUE DISORDERS,NA,MILD,N,N,N,N,N,N,N,N,REMOTE,,NOT RECOVERED/NOT RESOLVED,7,Y,,Y,Y,,,,DERMATOLOGIC EVENTS,Y
CDISCPILOT01,701,01-701-1130,Placebo,0,84,>80,3,WHITE,1,M,Y,2014-02-15,2014-08-16,2014-05-22,,97,NA,NA,NA,,NASAL CONGESTION,NASAL CONGESTION,NA,NASAL CONGESTION,NA,HLT_0118,NA,HLGT_0549,NA,"RESPIRATORY, THORACIC AND MEDIASTINAL DISORDERS","RESPIRATORY, THORACIC AND MEDIASTINAL DISORDERS",NA,MILD,N,N,N,N,N,N,N,N,REMOTE,,NOT RECOVERED/NOT RESOLVED,8,Y,,Y,Y,,,,,
CDISCPILOT01,701,01-701-1133,Xanomeline High Dose,81,81,>80,3,WHITE,1,F,Y,2012-10-28,2013-04-28,2012-12-27,,61,NA,NA,NA,,APPLICATION SITE ERYTHEMA,APPLICATION SITE REDNESS,NA,APPLICATION SITE ERYTHEMA,NA,HLT_0617,NA,HLGT_0152,NA,GENERAL DISORDERS AND ADMINISTRATION SITE CONDITIONS,GENERAL DISORDERS AND ADMINISTRATION SITE CONDITIONS,NA,MILD,N,N,N,N,N,N,N,N,PROBABLE,,NOT RECOVERED/NOT RESOLVED,1,Y,Y,Y,Y,,,,DERMATOLOGIC EVENTS,Y
CDISCPILOT01,701,01-701-1133,Xanomeline High Dose,81,81,>80,3,WHITE,1,F,Y,2012-10-28,2013-04-28,2012-12-27,,61,NA,NA,NA,,APPLICATION SITE PRURITUS,APPLICATION SITE ITCHING,NA,APPLICATION SITE PRURITUS,NA,HLT_0317,NA,HLGT_0338,NA,GENERAL DISORDERS AND ADMINISTRATION SITE CONDITIONS,GENERAL DISORDERS AND ADMINISTRATION SITE CONDITIONS,NA,MILD,N,N,N,N,N,N,N,N,PROBABLE,,NOT RECOVERED/NOT RESOLVED,2,Y,,,Y,,,,DERMATOLOGIC EVENTS,
CDISCPILOT01,701,01-701-1133,Xanomeline High Dose,81,81,>80,3,WHITE,1,F,Y,2012-10-28,2013-04-28,2012-12-27,,61,NA,NA,NA,,APPLICATION SITE ERYTHEMA,APPLICATION SITE REDNESS,NA,APPLICATION SITE ERYTHEMA,NA,HLT_0617,NA,HLGT_0152,NA,GENERAL DISORDERS AND ADMINISTRATION SITE CONDITIONS,GENERAL DISORDERS AND ADMINISTRATION SITE CONDITIONS,NA,MODERATE,N,N,N,N,N,N,N,N,PROBABLE,,NOT RECOVERED/NOT RESOLVED,3,Y,,,,,,,DERMATOLOGIC EVENTS,
CDISCPILOT01,701,01-701-1133,Xanomeline High Dose,81,81,>80,3,WHITE,1,F,Y,2012-10-28,2013-04-28,2012-12-27,,61,NA,NA,NA,,APPLICATION SITE PRURITUS,APPLICATION SITE ITCHING,NA,APPLICATION SITE PRURITUS,NA,HLT_0317,NA,HLGT_0338,NA,GENERAL DISORDERS AND ADMINISTRATION SITE CONDITIONS,GENERAL DISORDERS AND ADMINISTRATION SITE CONDITIONS,NA,MODERATE,N,N,N,N,N,N,N,N,PROBABLE,,NOT RECOVERED/NOT RESOLVED,4,Y,,,,,,,DERMATOLOGIC EVENTS,
CDISCPILOT01,701,01-701-1146,Xanomeline High Dose,81,75,65-80,2,WHITE,1,F,Y,2013-05-20,2013-06-26,2013-05-16,,-4,2013-06-02,14,18,DAY,RASH,RASH,NA,RASH,NA,HLT_0762,NA,HLGT_0198,NA,SKIN AND SUBCUTANEOUS TISSUE DISORDERS,SKIN AND SUBCUTANEOUS TISSUE DISORDERS,NA,MILD,N,N,N,N,N,N,N,N,NONE,,NOT RECOVERED/NOT RESOLVED,1,N,,,,,,,DERMATOLOGIC EVENTS,
CDISCPILOT01,701,01-701-1146,Xanomeline High Dose,81,75,65-80,2,WHITE,1,F,Y,2013-05-20,2013-06-26,2013-05-16,,-4,2013-06-02,14,18,DAY,RASH,RASH,NA,RASH,NA,HLT_0762,NA,HLGT_0198,NA,SKIN AND SUBCUTANEOUS TISSUE DISORDERS,SKIN AND SUBCUTANEOUS TISSUE DISORDERS,NA,MILD,N,N,N,N,N,N,N,N,NONE,,RECOVERED/RESOLVED,2,N,,,,,,,DERMATOLOGIC EVENTS,
CDISCPILOT01,701,01-701-1146,Xanomeline High Dose,81,75,65-80,2,WHITE,1,F,Y,2013-05-20,2013-06-26,2013-06-01,,13,2013-06-02,14,2,DAY,APPLICATION SITE IRRITATION,APPLICATION SITE IRRITATION,NA,APPLICATION SITE IRRITATION,NA,HLT_0061,NA,HLGT_0346,NA,GENERAL DISORDERS AND ADMINISTRATION SITE CONDITIONS,GENERAL DISORDERS AND ADMINISTRATION SITE CONDITIONS,NA,MILD,N,N,N,N,N,N,N,N,PROBABLE,,RECOVERED/RESOLVED,3,Y,Y,Y,Y,,,,DERMATOLOGIC EVENTS,Y
CDISCPILOT01,701,01-701-1146,Xanomeline High Dose,81,75,65-80,2,WHITE,1,F,Y,2013-05-20,2013-06-26,2013-06-03,,15,NA,NA,NA,,FATIGUE,FATIGUE,NA,FATIGUE,NA,HLT_0043,NA,HLGT_0181,NA,GENERAL DISORDERS AND ADMINISTRATION SITE CONDITIONS,GENERAL DISORDERS AND ADMINISTRATION SITE CONDITIONS,NA,MILD,N,N,N,N,N,N,N,N,POSSIBLE,,NOT RECOVERED/NOT RESOLVED,4,Y,,,Y,,,,,
CDISCPILOT01,701,01-701-1146,Xanomeline High Dose,81,75,65-80,2,WHITE,1,F,Y,2013-05-20,2013-06-26,2013-06-10,,22,NA,NA,NA,,APPLICATION SITE ERYTHEMA,APPLICATION SITE ERYTHEMA,NA,APPLICATION SITE ERYTHEMA,NA,HLT_0617,NA,HLGT_0152,NA,GENERAL DISORDERS AND ADMINISTRATION SITE CONDITIONS,GENERAL DISORDERS AND ADMINISTRATION SITE CONDITIONS,NA,MILD,N,N,N,N,N,N,N,N,PROBABLE,,NOT RECOVERED/NOT RESOLVED,5,Y,,,Y,,,,DERMATOLOGIC EVENTS,
CDISCPILOT01,701,01-701-1146,Xanomeline High Dose,81,75,65-80,2,WHITE,1,F,Y,2013-05-20,2013-06-26,2013-06-10,,22,NA,NA,NA,,APPLICATION SITE PRURITUS,APPLICATION SITE ITCHING,NA,APPLICATION SITE PRURITUS,NA,HLT_0317,NA,HLGT_0338,NA,GENERAL DISORDERS AND ADMINISTRATION SITE CONDITIONS,GENERAL DISORDERS AND ADMINISTRATION SITE CONDITIONS,NA,MILD,N,N,N,N,N,N,N,N,PROBABLE,,NOT RECOVERED/NOT RESOLVED,6,Y,,,Y,,,,DERMATOLOGIC EVENTS,
CDISCPILOT01,701,01-701-1146,Xanomeline High Dose,81,75,65-80,2,WHITE,1,F,Y,2013-05-20,2013-06-26,2013-06-10,,22,NA,NA,NA,,APPLICATION SITE ERYTHEMA,APPLICATION SITE ERYTHEMA,NA,APPLICATION SITE ERYTHEMA,NA,HLT_0617,NA,HLGT_0152,NA,GENERAL DISORDERS AND ADMINISTRATION SITE CONDITIONS,GENERAL DISORDERS AND ADMINISTRATION SITE CONDITIONS,NA,MODERATE,N,N,N,N,N,N,N,N,PROBABLE,,NOT RECOVERED/NOT RESOLVED,7,Y,,,,,,,DERMATOLOGIC EVENTS,
CDISCPILOT01,701,01-701-1146,Xanomeline High Dose,81,75,65-80,2,WHITE,1,F,Y,2013-05-20,2013-06-26,2013-06-10,,22,NA,NA,NA,,APPLICATION SITE PRURITUS,APPLICATION SITE ITCHING,NA,APPLICATION SITE PRURITUS,NA,HLT_0317,NA,HLGT_0338,NA,GENERAL DISORDERS AND ADMINISTRATION SITE CONDITIONS,GENERAL DISORDERS AND ADMINISTRATION SITE CONDITIONS,NA,MODERATE,N,N,N,N,N,N,N,N,PROBABLE,,NOT RECOVERED/NOT RESOLVED,8,Y,,,,,,,DERMATOLOGIC EVENTS,
CDISCPILOT01,701,01-701-1146,Xanomeline High Dose,81,75,65-80,2,WHITE,1,F,Y,2013-05-20,2013-06-26,2013-06-22,,34,NA,NA,NA,,APPLICATION SITE PAIN,APPLICATION SITE PAIN,NA,APPLICATION SITE PAIN,NA,HLT_0342,NA,HLGT_0085,NA,GENERAL DISORDERS AND ADMINISTRATION SITE CONDITIONS,GENERAL DISORDERS AND ADMINISTRATION SITE CONDITIONS,NA,MODERATE,N,N,N,N,N,N,N,N,PROBABLE,,NOT RECOVERED/NOT RESOLVED,9,Y,,,Y,,,,DERMATOLOGIC EVENTS,
CDISCPILOT01,701,01-701-1146,Xanomeline High Dose,81,75,65-80,2,WHITE,1,F,Y,2013-05-20,2013-06-26,2013-06-26,,38,NA,NA,NA,,APPLICATION SITE VESICLES,APPLICATION SITE VESICLES,NA,APPLICATION SITE VESICLES,NA,HLT_0180,NA,HLGT_0576,NA,GENERAL DISORDERS AND ADMINISTRATION SITE CONDITIONS,GENERAL DISORDERS AND ADMINISTRATION SITE CONDITIONS,NA,MODERATE,N,N,N,N,N,N,N,N,PROBABLE,,NOT RECOVERED/NOT RESOLVED,10,Y,,,Y,,,,DERMATOLOGIC EVENTS,
CDISCPILOT01,701,01-701-1146,Xanomeline High Dose,81,75,65-80,2,WHITE,1,F,Y,2013-05-20,2013-06-26,2013-06-26,,38,NA,NA,NA,,APPLICATION SITE IRRITATION,APPLICATION SITE BURNING,NA,APPLICATION SITE IRRITATION,NA,HLT_0061,NA,HLGT_0346,NA,GENERAL DISORDERS AND ADMINISTRATION SITE CONDITIONS,GENERAL DISORDERS AND ADMINISTRATION SITE CONDITIONS,NA,MODERATE,N,N,N,N,N,N,N,N,PROBABLE,,NOT RECOVERED/NOT RESOLVED,11,Y,,,,,,,DERMATOLOGIC EVENTS,
CDISCPILOT01,701,01-701-1148,Xanomeline High Dose,81,57,<65,1,WHITE,1,M,Y,2013-08-23,2014-02-20,2013-08-25,,3,NA,NA,NA,,APPLICATION SITE ERYTHEMA,APPLICATION SITE REDNESS,NA,APPLICATION SITE ERYTHEMA,NA,HLT_0617,NA,HLGT_0152,NA,GENERAL DISORDERS AND ADMINISTRATION SITE CONDITIONS,GENERAL DISORDERS AND ADMINISTRATION SITE CONDITIONS,NA,MILD,N,N,N,N,N,N,N,N,PROBABLE,,NOT RECOVERED/NOT RESOLVED,1,Y,Y,Y,Y,,,,DERMATOLOGIC EVENTS,Y
CDISCPILOT01,701,01-701-1148,Xanomeline High Dose,81,57,<65,1,WHITE,1,M,Y,2013-08-23,2014-02-20,2013-08-25,,3,NA,NA,NA,,APPLICATION SITE PRURITUS,APPLICATION SITE ITCHING,NA,APPLICATION SITE PRURITUS,NA,HLT_0317,NA,HLGT_0338,NA,GENERAL DISORDERS AND ADMINISTRATION SITE CONDITIONS,GENERAL DISORDERS AND ADMINISTRATION SITE CONDITIONS,NA,MILD,N,N,N,N,N,N,N,N,PROBABLE,,NOT RECOVERED/NOT RESOLVED,2,Y,,,Y,,,,DERMATOLOGIC EVENTS,
CDISCPILOT01,701,01-701-1148,Xanomeline High Dose,81,57,<65,1,WHITE,1,M,Y,2013-08-23,2014-02-20,2013-10-12,,51,2013-11-10,80,30,DAY,LOWER RESPIRATORY TRACT INFECTION,CHEST COLD,NA,LOWER RESPIRATORY TRACT INFECTION,NA,HLT_0052,NA,HLGT_0217,NA,INFECTIONS AND INFESTATIONS,INFECTIONS AND INFESTATIONS,NA,MODERATE,N,N,N,N,N,N,N,N,NONE,,NOT RECOVERED/NOT RESOLVED,3,Y,,Y,Y,,,,,
CDISCPILOT01,701,01-701-1148,Xanomeline High Dose,81,57,<65,1,WHITE,1,M,Y,2013-08-23,2014-02-20,2013-10-12,,51,2013-11-10,80,30,DAY,LOWER RESPIRATORY TRACT INFECTION,CHEST COLD,NA,LOWER RESPIRATORY TRACT INFECTION,NA,HLT_0052,NA,HLGT_0217,NA,INFECTIONS AND INFESTATIONS,INFECTIONS AND INFESTATIONS,NA,MODERATE,N,N,N,N,N,N,N,N,NONE,,RECOVERED/RESOLVED,4,Y,,,,,,,,
CDISCPILOT01,701,01-701-1148,Xanomeline High Dose,81,57,<65,1,WHITE,1,M,Y,2013-08-23,2014-02-20,2013-12-15,,115,2013-12-17,117,3,DAY,FLANK PAIN,FLANK PAIN,NA,FLANK PAIN,NA,HLT_0484,NA,HLGT_0543,NA,MUSCULOSKELETAL AND CONNECTIVE TISSUE DISORDERS,MUSCULOSKELETAL AND CONNECTIVE TISSUE DISORDERS,NA,MODERATE,N,N,N,N,N,N,N,N,NONE,,RECOVERED/RESOLVED,5,Y,,Y,Y,,,,,
CDISCPILOT01,701,01-701-1148,Xanomeline High Dose,81,57,<65,1,WHITE,1,M,Y,2013-08-23,2014-02-20,2013-12-17,,117,2013-12-17,117,1,DAY,CALCULUS URETHRAL,URETHRAL CALCULUS,NA,CALCULUS URETHRAL,NA,HLT_0550,NA,HLGT_0414,NA,RENAL AND URINARY DISORDERS,RENAL AND URINARY DISORDERS,NA,MODERATE,N,N,N,N,N,N,N,N,NONE,,RECOVERED/RESOLVED,6,Y,,Y,Y,,,,,
CDISCPILOT01,701,01-701-1148,Xanomeline High Dose,81,57,<65,1,WHITE,1,M,Y,2013-08-23,2014-02-20,2014-01-03,,134,2014-01-03,134,1,DAY,EPISTAXIS,NOSE BLEED,NA,EPISTAXIS,NA,HLT_0386,NA,HLGT_0577,NA,"RESPIRATORY, THORACIC AND MEDIASTINAL DISORDERS","RESPIRATORY, THORACIC AND MEDIASTINAL DISORDERS",NA,MILD,N,N,N,N,N,N,N,N,NONE,,RECOVERED/RESOLVED,7,Y,,Y,Y,,,,,
CDISCPILOT01,701,01-701-1148,Xanomeline High Dose,81,57,<65,1,WHITE,1,M,Y,2013-08-23,2014-02-20,2012-02-01,D,-569,NA,NA,NA,,DYSPEPSIA,INDIGESTION,NA,DYSPEPSIA,NA,HLT_0244,NA,HLGT_0716,NA,GASTROINTESTINAL DISORDERS,GASTROINTESTINAL DISORDERS,NA,MODERATE,N,N,N,N,N,N,N,N,NONE,,NOT RECOVERED/NOT RESOLVED,8,N,,,,,,,,
CDISCPILOT01,701,01-701-1148,Xanomeline High Dose,81,57,<65,1,WHITE,1,M,Y,2013-08-23,2014-02-20,2013-07-29,,-25,NA,NA,NA,,DEPRESSED MOOD,DEPRESSED MOOD,NA,DEPRESSED MOOD,NA,HLT_0784,NA,HLGT_0122,NA,PSYCHIATRIC DISORDERS,PSYCHIATRIC DISORDERS,NA,MODERATE,N,N,N,N,N,N,N,N,NONE,,NOT RECOVERED/NOT RESOLVED,9,N,,,,,,,,
CDISCPILOT01,701,01-701-1148,Xanomeline High Dose,81,57,<65,1,WHITE,1,M,Y,2013-08-23,2014-02-20,2014-02-12,,174,NA,NA,NA,,ACTINIC KERATOSIS,ACTINIC KERATOSIS,NA,ACTINIC KERATOSIS,NA,HLT_0609,NA,HLGT_0490,NA,SKIN AND SUBCUTANEOUS TISSUE DISORDERS,SKIN AND SUBCUTANEOUS TISSUE DISORDERS,NA,MILD,N,N,N,N,N,N,N,N,NONE,,NOT RECOVERED/NOT RESOLVED,10,Y,,Y,Y,,,,DERMATOLOGIC EVENTS,
CDISCPILOT01,701,01-701-1153,Placebo,0,79,65-80,2,WHITE,1,F,Y,2013-09-23,2014-03-16,2013-10-13,,21,2013-11-06,45,25,DAY,INCREASED APPETITE,INCREASED APPETITE,NA,INCREASED APPETITE,NA,HLT_0566,NA,HLGT_0769,NA,METABOLISM AND NUTRITION DISORDERS,METABOLISM AND NUTRITION DISORDERS,NA,MILD,N,N,N,N,N,N,N,N,POSSIBLE,,NOT RECOVERED/NOT RESOLVED,1,Y,Y,Y,Y,,,,,
CDISCPILOT01,701,01-701-1153,Placebo,0,79,65-80,2,WHITE,1,F,Y,2013-09-23,2014-03-16,2013-10-13,,21,2013-11-06,45,25,DAY,INCREASED APPETITE,INCREASED APPETITE,NA,INCREASED APPETITE,NA,HLT_0566,NA,HLGT_0769,NA,METABOLISM AND NUTRITION DISORDERS,METABOLISM AND NUTRITION DISORDERS,NA,MILD,N,N,N,N,N,N,N,N,POSSIBLE,,RECOVERED/RESOLVED,2,Y,,,,,,,,
CDISCPILOT01,701,01-701-1180,Xanomeline High Dose,81,56,<65,1,WHITE,1,M,Y,2013-02-12,2013-03-18,2013-02-12,,1,2013-02-12,1,1,DAY,VOMITING,VOMITING,NA,VOMITING,NA,HLT_0016,NA,HLGT_0350,NA,GASTROINTESTINAL DISORDERS,GASTROINTESTINAL DISORDERS,NA,MILD,N,N,N,N,N,N,N,N,NONE,,NOT RECOVERED/NOT RESOLVED,1,Y,Y,Y,Y,,,,,
CDISCPILOT01,701,01-701-1180,Xanomeline High Dose,81,56,<65,1,WHITE,1,M,Y,2013-02-12,2013-03-18,2013-02-12,,1,2013-02-12,1,1,DAY,VOMITING,VOMITING,NA,VOMITING,NA,HLT_0016,NA,HLGT_0350,NA,GASTROINTESTINAL DISORDERS,GASTROINTESTINAL DISORDERS,NA,MILD,N,N,N,N,N,N,N,N,NONE,,RECOVERED/RESOLVED,2,Y,,,,,,,,
CDISCPILOT01,701,01-701-1180,Xanomeline High Dose,81,56,<65,1,WHITE,1,M,Y,2013-02-12,2013-03-18,2013-02-15,,4,2013-03-19,36,33,DAY,MICTURITION URGENCY,URINARY URGENCY,NA,MICTURITION URGENCY,NA,HLT_0294,NA,HLGT_0483,NA,RENAL AND URINARY DISORDERS,RENAL AND URINARY DISORDERS,NA,MILD,N,N,N,N,N,N,N,N,POSSIBLE,,NOT RECOVERED/NOT RESOLVED,3,Y,,Y,Y,,,,,
CDISCPILOT01,701,01-701-1180,Xanomeline High Dose,81,56,<65,1,WHITE,1,M,Y,2013-02-12,2013-03-18,NA,,NA,NA,NA,NA,,HEADACHE,HEADACHE,NA,HEADACHE,NA,HLT_0064,NA,HLGT_0344,NA,NERVOUS SYSTEM DISORDERS,NERVOUS SYSTEM DISORDERS,NA,MODERATE,N,N,N,N,N,N,N,N,NONE,,NOT RECOVERED/NOT RESOLVED,4,N,,,,,,,,
CDISCPILOT01,701,01-701-1180,Xanomeline High Dose,81,56,<65,1,WHITE,1,M,Y,2013-02-12,2013-03-18,2013-03-06,,23,2013-03-07,24,2,DAY,NASOPHARYNGITIS,COLD,NA,NASOPHARYNGITIS,NA,HLT_0036,NA,HLGT_0709,NA,INFECTIONS AND INFESTATIONS,INFECTIONS AND INFESTATIONS,NA,MILD,N,N,N,N,N,N,N,N,NONE,,RECOVERED/RESOLVED,5,Y,,Y,Y,,,,,
CDISCPILOT01,701,01-701-1180,Xanomeline High Dose,81,56,<65,1,WHITE,1,M,Y,2013-02-12,2013-03-18,2013-02-15,,4,2013-03-19,36,33,DAY,MICTURITION URGENCY,URINARY URGENCY,NA,MICTURITION URGENCY,NA,HLT_0294,NA,HLGT_0483,NA,RENAL AND URINARY DISORDERS,RENAL AND URINARY DISORDERS,NA,MILD,N,N,N,N,N,N,N,N,POSSIBLE,,RECOVERED/RESOLVED,6,Y,,,,,,,,
CDISCPILOT01,701,01-701-1180,Xanomeline High Dose,81,56,<65,1,WHITE,1,M,Y,2013-02-12,2013-03-18,2013-03-19,,36,NA,NA,NA,,APPLICATION SITE VESICLES,APPLICATION SITE BLISTER,NA,APPLICATION SITE VESICLES,NA,HLT_0180,NA,HLGT_0576,NA,GENERAL DISORDERS AND ADMINISTRATION SITE CONDITIONS,GENERAL DISORDERS AND ADMINISTRATION SITE CONDITIONS,NA,MODERATE,N,N,N,N,N,N,N,N,POSSIBLE,,NOT RECOVERED/NOT RESOLVED,7,Y,,Y,Y,,,,DERMATOLOGIC EVENTS,Y
CDISCPILOT01,701,01-701-1180,Xanomeline High Dose,81,56,<65,1,WHITE,1,M,Y,2013-02-12,2013-03-18,2013-03-19,,36,NA,NA,NA,,APPLICATION SITE PRURITUS,APPLICATION SITE ITCHING,NA,APPLICATION SITE PRURITUS,NA,HLT_0317,NA,HLGT_0338,NA,GENERAL DISORDERS AND ADMINISTRATION SITE CONDITIONS,GENERAL DISORDERS AND ADMINISTRATION SITE CONDITIONS,NA,MODERATE,N,N,N,N,N,N,N,N,POSSIBLE,,NOT RECOVERED/NOT RESOLVED,8,Y,,,Y,,,,DERMATOLOGIC EVENTS,
CDISCPILOT01,701,01-701-1180,Xanomeline High Dose,81,56,<65,1,WHITE,1,M,Y,2013-02-12,2013-03-18,2013-03-19,,36,NA,NA,NA,,APPLICATION SITE ERYTHEMA,APPLICATION SITE ERYTHEMA,NA,APPLICATION SITE ERYTHEMA,NA,HLT_0617,NA,HLGT_0152,NA,GENERAL DISORDERS AND ADMINISTRATION SITE CONDITIONS,GENERAL DISORDERS AND ADMINISTRATION SITE CONDITIONS,NA,MODERATE,N,N,N,N,N,N,N,N,POSSIBLE,,NOT RECOVERED/NOT RESOLVED,9,Y,,,Y,,,,DERMATOLOGIC EVENTS,
CDISCPILOT01,701,01-701-1181,Xanomeline High Dose,81,79,65-80,2,WHITE,1,F,Y,2013-12-05,2013-12-09,2013-12-09,,5,2013-12-09,5,1,DAY,AGITATION,AGITATION,NA,AGITATION,NA,HLT_0140,NA,HLGT_0170,NA,PSYCHIATRIC DISORDERS,PSYCHIATRIC DISORDERS,NA,MODERATE,N,N,N,N,N,N,N,N,NONE,,RECOVERED/RESOLVED,1,Y,Y,Y,Y,,,,,
CDISCPILOT01,701,01-701-1188,Xanomeline Low Dose,54,71,65-80,2,WHITE,1,M,Y,2013-02-15,2013-03-24,2013-02-16,,2,NA,NA,NA,,ERYTHEMA,ERYTHEMA,NA,ERYTHEMA,NA,HLT_0284,NA,HLGT_0192,NA,SKIN AND SUBCUTANEOUS TISSUE DISORDERS,SKIN AND SUBCUTANEOUS TISSUE DISORDERS,NA,MILD,N,N,N,N,N,N,N,N,PROBABLE,,NOT RECOVERED/NOT RESOLVED,1,Y,Y,Y,Y,,,,DERMATOLOGIC EVENTS,Y
CDISCPILOT01,701,01-701-1188,Xanomeline Low Dose,54,71,65-80,2,WHITE,1,M,Y,2013-02-15,2013-03-24,2013-02-16,,2,NA,NA,NA,,PRURITUS,ITCHING,NA,PRURITUS,NA,HLT_0778,NA,HLGT_0695,NA,SKIN AND SUBCUTANEOUS TISSUE DISORDERS,SKIN AND SUBCUTANEOUS TISSUE DISORDERS,NA,MILD,N,N,N,N,N,N,N,N,PROBABLE,,NOT RECOVERED/NOT RESOLVED,2,Y,,,Y,,,,DERMATOLOGIC EVENTS,
CDISCPILOT01,701,01-701-1188,Xanomeline Low Dose,54,71,65-80,2,WHITE,1,M,Y,2013-02-15,2013-03-24,2013-02-16,,2,NA,NA,NA,,ERYTHEMA,ERYTHEMA,NA,ERYTHEMA,NA,HLT_0284,NA,HLGT_0192,NA,SKIN AND SUBCUTANEOUS TISSUE DISORDERS,SKIN AND SUBCUTANEOUS TISSUE DISORDERS,NA,MODERATE,N,N,N,N,N,N,N,N,PROBABLE,,NOT RECOVERED/NOT RESOLVED,3,Y,,,,,,,DERMATOLOGIC EVENTS,
CDISCPILOT01,701,01-701-1188,Xanomeline Low Dose,54,71,65-80,2,WHITE,1,M,Y,2013-02-15,2013-03-24,2013-02-16,,2,NA,NA,NA,,PRURITUS,ITCHING,NA,PRURITUS,NA,HLT_0778,NA,HLGT_0695,NA,SKIN AND SUBCUTANEOUS TISSUE DISORDERS,SKIN AND SUBCUTANEOUS TISSUE DISORDERS,NA,MODERATE,N,N,N,N,N,N,N,N,PROBABLE,,NOT RECOVERED/NOT RESOLVED,4,Y,,,,,,,DERMATOLOGIC EVENTS,
CDISCPILOT01,701,01-701-1188,Xanomeline Low Dose,54,71,65-80,2,WHITE,1,M,Y,2013-02-15,2013-03-24,2013-03-04,,18,NA,NA,NA,,URTICARIA,WELTS,NA,URTICARIA,NA,HLT_0420,NA,HLGT_0705,NA,SKIN AND SUBCUTANEOUS TISSUE DISORDERS,SKIN AND SUBCUTANEOUS TISSUE DISORDERS,NA,MILD,N,N,N,N,N,N,N,N,PROBABLE,,NOT RECOVERED/NOT RESOLVED,5,Y,,,Y,,,,DERMATOLOGIC EVENTS,
CDISCPILOT01,701,01-701-1188,Xanomeline Low Dose,54,71,65-80,2,WHITE,1,M,Y,2013-02-15,2013-03-24,2013-03-04,,18,NA,NA,NA,,URTICARIA,WELTS,NA,URTICARIA,NA,HLT_0420,NA,HLGT_0705,NA,SKIN AND SUBCUTANEOUS TISSUE DISORDERS,SKIN AND SUBCUTANEOUS TISSUE DISORDERS,NA,MODERATE,N,N,N,N,N,N,N,N,PROBABLE,,NOT RECOVERED/NOT RESOLVED,6,Y,,,,,,,DERMATOLOGIC EVENTS,
CDISCPILOT01,701,01-701-1188,Xanomeline Low Dose,54,71,65-80,2,WHITE,1,M,Y,2013-02-15,2013-03-24,2013-03-21,,35,NA,NA,NA,,APPLICATION SITE URTICARIA,APPLICATION SITE URTICARIA,NA,APPLICATION SITE URTICARIA,NA,HLT_0196,NA,HLGT_0233,NA,GENERAL DISORDERS AND ADMINISTRATION SITE CONDITIONS,GENERAL DISORDERS AND ADMINISTRATION SITE CONDITIONS,NA,MILD,N,N,N,N,N,N,N,N,PROBABLE,,NOT RECOVERED/NOT RESOLVED,7,Y,,Y,Y,,,,DERMATOLOGIC EVENTS,
CDISCPILOT01,701,01-701-1188,Xanomeline Low Dose,54,71,65-80,2,WHITE,1,M,Y,2013-02-15,2013-03-24,2013-03-21,,35,NA,NA,NA,,URTICARIA,WELTS,NA,URTICARIA,NA,HLT_0420,NA,HLGT_0705,NA,SKIN AND SUBCUTANEOUS TISSUE DISORDERS,SKIN AND SUBCUTANEOUS TISSUE DISORDERS,NA,MILD,N,N,N,N,N,N,N,N,PROBABLE,,NOT RECOVERED/NOT RESOLVED,8,Y,,,,,,,DERMATOLOGIC EVENTS,
CDISCPILOT01,701,01-701-1192,Xanomeline Low Dose,54,80,65-80,2,WHITE,1,F,Y,2012-07-22,2013-01-20,2012-08-03,,13,2012-08-03,13,1,DAY,NASAL MUCOSA BIOPSY,NASAL MUCOSA BIOPSY,NA,NASAL MUCOSA BIOPSY,NA,HLT_0680,NA,HLGT_0396,NA,INVESTIGATIONS,INVESTIGATIONS,NA,MILD,N,N,N,N,N,N,N,N,NONE,,RECOVERED/RESOLVED,1,Y,Y,Y,Y,,,,,
CDISCPILOT01,701,01-701-1192,Xanomeline Low Dose,54,80,65-80,2,WHITE,1,F,Y,2012-07-22,2013-01-20,2012-08-07,,17,2012-09-14,55,39,DAY,SECRETION DISCHARGE,SECRETION DISCHARGE,NA,SECRETION DISCHARGE,NA,HLT_0683,NA,HLGT_0575,NA,GENERAL DISORDERS AND ADMINISTRATION SITE CONDITIONS,GENERAL DISORDERS AND ADMINISTRATION SITE CONDITIONS,NA,MILD,N,N,N,N,N,N,N,N,NONE,,NOT RECOVERED/NOT RESOLVED,2,Y,,Y,Y,,,,,
CDISCPILOT01,701,01-701-1192,Xanomeline Low Dose,54,80,65-80,2,WHITE,1,F,Y,2012-07-22,2013-01-20,2012-08-07,,17,2012-09-14,55,39,DAY,ERYTHEMA,ERYTHEMA FACIAL,NA,ERYTHEMA,NA,HLT_0284,NA,HLGT_0192,NA,SKIN AND SUBCUTANEOUS TISSUE DISORDERS,SKIN AND SUBCUTANEOUS TISSUE DISORDERS,NA,MILD,N,N,N,N,N,N,N,N,NONE,,NOT RECOVERED/NOT RESOLVED,3,Y,,Y,Y,,,,DERMATOLOGIC EVENTS,Y
CDISCPILOT01,701,01-701-1192,Xanomeline Low Dose,54,80,65-80,2,WHITE,1,F,Y,2012-07-22,2013-01-20,2010-06-01,D,-782,NA,NA,NA,,COUGH,COUGH,NA,COUGH,NA,HLT_0701,NA,HLGT_0280,NA,"RESPIRATORY, THORACIC AND MEDIASTINAL DISORDERS","RESPIRATORY, THORACIC AND MEDIASTINAL DISORDERS",NA,MODERATE,N,N,N,N,N,N,N,N,NONE,,NOT RECOVERED/NOT RESOLVED,4,N,,,,,,,,
CDISCPILOT01,701,01-701-1192,Xanomeline Low Dose,54,80,65-80,2,WHITE,1,F,Y,2012-07-22,2013-01-20,2012-08-07,,17,2012-09-14,55,39,DAY,SECRETION DISCHARGE,SECRETION DISCHARGE,NA,SECRETION DISCHARGE,NA,HLT_0683,NA,HLGT_0575,NA,GENERAL DISORDERS AND ADMINISTRATION SITE CONDITIONS,GENERAL DISORDERS AND ADMINISTRATION SITE CONDITIONS,NA,MILD,N,N,N,N,N,N,N,N,NONE,,RECOVERED/RESOLVED,5,Y,,,,,,,,
CDISCPILOT01,701,01-701-1192,Xanomeline Low Dose,54,80,65-80,2,WHITE,1,F,Y,2012-07-22,2013-01-20,2012-08-07,,17,2012-09-14,55,39,DAY,ERYTHEMA,ERYTHEMA FACIAL,NA,ERYTHEMA,NA,HLT_0284,NA,HLGT_0192,NA,SKIN AND SUBCUTANEOUS TISSUE DISORDERS,SKIN AND SUBCUTANEOUS TISSUE DISORDERS,NA,MILD,N,N,N,N,N,N,N,N,NONE,,RECOVERED/RESOLVED,6,Y,,,,,,,DERMATOLOGIC EVENTS,
CDISCPILOT01,701,01-701-1192,Xanomeline Low Dose,54,80,65-80,2,WHITE,1,F,Y,2012-07-22,2013-01-20,2012-09-07,,48,2012-10-06,77,30,DAY,PNEUMONIA,PNEUMONIA,NA,PNEUMONIA,NA,HLT_0251,NA,HLGT_0671,NA,INFECTIONS AND INFESTATIONS,INFECTIONS AND INFESTATIONS,NA,MODERATE,N,N,N,N,N,Y,N,N,NONE,,NOT RECOVERED/NOT RESOLVED,7,Y,,Y,Y,,,,,
CDISCPILOT01,701,01-701-1192,Xanomeline Low Dose,54,80,65-80,2,WHITE,1,F,Y,2012-07-22,2013-01-20,2012-09-07,,48,2012-09-30,71,24,DAY,MUSCULAR WEAKNESS,MUSCULAR WEAKNESS,NA,MUSCULAR WEAKNESS,NA,HLT_0444,NA,HLGT_0211,NA,MUSCULOSKELETAL AND CONNECTIVE TISSUE DISORDERS,MUSCULOSKELETAL AND CONNECTIVE TISSUE DISORDERS,NA,MODERATE,N,N,N,N,N,N,N,N,NONE,,NOT RECOVERED/NOT RESOLVED,8,Y,,Y,Y,,,,,
CDISCPILOT01,701,01-701-1192,Xanomeline Low Dose,54,80,65-80,2,WHITE,1,F,Y,2012-07-22,2013-01-20,2010-06-01,D,-782,NA,NA,NA,,COUGH,COUGH,NA,COUGH,NA,HLT_0701,NA,HLGT_0280,NA,"RESPIRATORY, THORACIC AND MEDIASTINAL DISORDERS","RESPIRATORY, THORACIC AND MEDIASTINAL DISORDERS",NA,MILD,N,N,N,N,N,N,N,N,NONE,,NOT RECOVERED/NOT RESOLVED,9,N,,,,,,,,
CDISCPILOT01,701,01-701-1192,Xanomeline Low Dose,54,80,65-80,2,WHITE,1,F,Y,2012-07-22,2013-01-20,2012-09-07,,48,2012-10-06,77,30,DAY,PNEUMONIA,PNEUMONIA,NA,PNEUMONIA,NA,HLT_0251,NA,HLGT_0671,NA,INFECTIONS AND INFESTATIONS,INFECTIONS AND INFESTATIONS,NA,MODERATE,N,N,N,N,N,Y,N,N,NONE,,RECOVERED/RESOLVED,10,Y,,,,,,,,
CDISCPILOT01,701,01-701-1192,Xanomeline Low Dose,54,80,65-80,2,WHITE,1,F,Y,2012-07-22,2013-01-20,2012-09-07,,48,2012-09-30,71,24,DAY,MUSCULAR WEAKNESS,MUSCULAR WEAKNESS,NA,MUSCULAR WEAKNESS,NA,HLT_0444,NA,HLGT_0211,NA,MUSCULOSKELETAL AND CONNECTIVE TISSUE DISORDERS,MUSCULOSKELETAL AND CONNECTIVE TISSUE DISORDERS,NA,MODERATE,N,N,N,N,N,N,N,N,NONE,,RECOVERED/RESOLVED,11,Y,,,,,,,,
CDISCPILOT01,701,01-701-1192,Xanomeline Low Dose,54,80,65-80,2,WHITE,1,F,Y,2012-07-22,2013-01-20,2012-12-05,,137,2012-12-16,148,12,DAY,APPLICATION SITE IRRITATION,APPLICATION SITE BURNING,NA,APPLICATION SITE IRRITATION,NA,HLT_0061,NA,HLGT_0346,NA,GENERAL DISORDERS AND ADMINISTRATION SITE CONDITIONS,GENERAL DISORDERS AND ADMINISTRATION SITE CONDITIONS,NA,MILD,N,N,N,N,N,N,N,N,PROBABLE,,NOT RECOVERED/NOT RESOLVED,12,Y,,,Y,,,,DERMATOLOGIC EVENTS,
CDISCPILOT01,701,01-701-1192,Xanomeline Low Dose,54,80,65-80,2,WHITE,1,F,Y,2012-07-22,2013-01-20,2012-12-05,,137,NA,NA,NA,,APPLICATION SITE ERYTHEMA,APPLICATION SITE REDNESS,NA,APPLICATION SITE ERYTHEMA,NA,HLT_0617,NA,HLGT_0152,NA,GENERAL DISORDERS AND ADMINISTRATION SITE CONDITIONS,GENERAL DISORDERS AND ADMINISTRATION SITE CONDITIONS,NA,MILD,N,N,N,N,N,N,N,N,PROBABLE,,NOT RECOVERED/NOT RESOLVED,13,Y,,,Y,,,,DERMATOLOGIC EVENTS,
CDISCPILOT01,701,01-701-1192,Xanomeline Low Dose,54,80,65-80,2,WHITE,1,F,Y,2012-07-22,2013-01-20,2012-12-05,,137,NA,NA,NA,,APPLICATION SITE PRURITUS,APPLICATION SITE ITCHING,NA,APPLICATION SITE PRURITUS,NA,HLT_0317,NA,HLGT_0338,NA,GENERAL DISORDERS AND ADMINISTRATION SITE CONDITIONS,GENERAL DISORDERS AND ADMINISTRATION SITE CONDITIONS,NA,MILD,N,N,N,N,N,N,N,N,PROBABLE,,NOT RECOVERED/NOT RESOLVED,14,Y,,,Y,,,,DERMATOLOGIC EVENTS,
CDISCPILOT01,701,01-701-1192,Xanomeline Low Dose,54,80,65-80,2,WHITE,1,F,Y,2012-07-22,2013-01-20,2012-12-05,,137,2012-12-16,148,12,DAY,APPLICATION SITE IRRITATION,APPLICATION SITE BURNING,NA,APPLICATION SITE IRRITATION,NA,HLT_0061,NA,HLGT_0346,NA,GENERAL DISORDERS AND ADMINISTRATION SITE CONDITIONS,GENERAL DISORDERS AND ADMINISTRATION SITE CONDITIONS,NA,MILD,N,N,N,N,N,N,N,N,PROBABLE,,RECOVERED/RESOLVED,15,Y,,,,,,,DERMATOLOGIC EVENTS,
CDISCPILOT01,701,01-701-1203,Placebo,0,81,>80,3,BLACK OR AFRICAN AMERICAN,2,F,Y,2013-02-02,2013-08-03,2013-03-21,,48,2013-03-21,48,1,DAY,EYE LASER SURGERY,EYE LASER SURGERY,NA,EYE LASER SURGERY,NA,HLT_0355,NA,HLGT_0189,NA,SURGICAL AND MEDICAL PROCEDURES,SURGICAL AND MEDICAL PROCEDURES,NA,MILD,N,N,N,N,N,N,N,N,NONE,,RECOVERED/RESOLVED,1,Y,Y,Y,Y,,,,,
CDISCPILOT01,701,01-701-1211,Xanomeline Low Dose,54,76,65-80,2,WHITE,1,F,Y,2012-11-15,2013-01-12,2012-11-16,,2,NA,NA,NA,,APPLICATION SITE PRURITUS,APPLICATION SITE ITCHING,NA,APPLICATION SITE PRURITUS,NA,HLT_0317,NA,HLGT_0338,NA,GENERAL DISORDERS AND ADMINISTRATION SITE CONDITIONS,GENERAL DISORDERS AND ADMINISTRATION SITE CONDITIONS,NA,MILD,N,N,N,N,N,N,N,N,POSSIBLE,,NOT RECOVERED/NOT RESOLVED,1,Y,Y,Y,Y,,,,DERMATOLOGIC EVENTS,Y
CDISCPILOT01,701,01-701-1211,Xanomeline Low Dose,54,76,65-80,2,WHITE,1,F,Y,2012-11-15,2013-01-12,2012-11-21,,7,2012-11-21,7,1,DAY,JOINT DISLOCATION,SHOULDER DISLOCATION,NA,JOINT DISLOCATION,NA,HLT_0035,NA,HLGT_0227,NA,"INJURY, POISONING AND PROCEDURAL COMPLICATIONS","INJURY, POISONING AND PROCEDURAL COMPLICATIONS",NA,MODERATE,N,N,N,N,N,N,N,N,NONE,,RECOVERED/RESOLVED,2,Y,,Y,Y,,,,,
CDISCPILOT01,701,01-701-1211,Xanomeline Low Dose,54,76,65-80,2,WHITE,1,F,Y,2012-11-15,2013-01-12,2012-11-21,,7,NA,NA,NA,,SHOULDER PAIN,SHOULDER PAIN,NA,SHOULDER PAIN,NA,HLT_0527,NA,HLGT_0288,NA,MUSCULOSKELETAL AND CONNECTIVE TISSUE DISORDERS,MUSCULOSKELETAL AND CONNECTIVE TISSUE DISORDERS,NA,MILD,N,N,N,N,N,N,N,N,NONE,,NOT RECOVERED/NOT RESOLVED,3,Y,,Y,Y,,,,,
CDISCPILOT01,701,01-701-1211,Xanomeline Low Dose,54,76,65-80,2,WHITE,1,F,Y,2012-11-15,2013-01-12,2012-11-22,,8,NA,NA,NA,,INCONTINENCE,INCONTINENCE,NA,INCONTINENCE,NA,HLT_0560,NA,HLGT_0503,NA,RENAL AND URINARY DISORDERS,RENAL AND URINARY DISORDERS,NA,MILD,N,N,N,N,N,N,N,N,NONE,,NOT RECOVERED/NOT RESOLVED,4,Y,,Y,Y,,,,,
CDISCPILOT01,701,01-701-1211,Xanomeline Low Dose,54,76,65-80,2,WHITE,1,F,Y,2012-11-15,2013-01-12,2012-11-29,,15,NA,NA,NA,,APPLICATION SITE ERYTHEMA,APPLICATION SITE REDNESS,NA,APPLICATION SITE ERYTHEMA,NA,HLT_0617,NA,HLGT_0152,NA,GENERAL DISORDERS AND ADMINISTRATION SITE CONDITIONS,GENERAL DISORDERS AND ADMINISTRATION SITE CONDITIONS,NA,MILD,N,N,N,N,N,N,N,N,POSSIBLE,,NOT RECOVERED/NOT RESOLVED,5,Y,,,Y,,,,DERMATOLOGIC EVENTS,
CDISCPILOT01,701,01-701-1211,Xanomeline Low Dose,54,76,65-80,2,WHITE,1,F,Y,2012-11-15,2013-01-12,2012-12-09,,25,NA,NA,NA,,SKIN LACERATION,LACERATION OF FACE,NA,SKIN LACERATION,NA,HLT_0075,NA,HLGT_0118,NA,"INJURY, POISONING AND PROCEDURAL COMPLICATIONS","INJURY, POISONING AND PROCEDURAL COMPLICATIONS",NA,MILD,N,N,N,N,N,N,N,N,NONE,,NOT RECOVERED/NOT RESOLVED,6,Y,,,Y,,,,,
CDISCPILOT01,701,01-701-1211,Xanomeline Low Dose,54,76,65-80,2,WHITE,1,F,Y,2012-11-15,2013-01-12,2013-01-11,,58,NA,NA,NA,,CONFUSIONAL STATE,CONFUSION,NA,CONFUSIONAL STATE,NA,HLT_0642,NA,HLGT_0329,NA,PSYCHIATRIC DISORDERS,PSYCHIATRIC DISORDERS,NA,MODERATE,N,N,N,N,N,N,N,N,NONE,,NOT RECOVERED/NOT RESOLVED,7,Y,,Y,Y,,,,,
CDISCPILOT01,701,01-701-1211,Xanomeline Low Dose,54,76,65-80,2,WHITE,1,F,Y,2012-11-15,2013-01-12,2013-01-11,,58,NA,NA,NA,,DYSPNOEA,SHORTNESS OF BREATH,NA,DYSPNOEA,NA,HLT_0296,NA,HLGT_0255,NA,"RESPIRATORY, THORACIC AND MEDIASTINAL DISORDERS","RESPIRATORY, THORACIC AND MEDIASTINAL DISORDERS",NA,MODERATE,N,N,N,N,N,N,N,N,NONE,,NOT RECOVERED/NOT RESOLVED,8,Y,,Y,Y,,,,,
CDISCPILOT01,701,01-701-1211,Xanomeline Low Dose,54,76,65-80,2,WHITE,1,F,Y,2012-11-15,2013-01-12,2013-01-14,,61,2013-01-14,61,1,DAY,SUDDEN DEATH,SUDDEN DEATH,NA,SUDDEN DEATH,NA,HLT_0142,NA,HLGT_0272,NA,GENERAL DISORDERS AND ADMINISTRATION SITE CONDITIONS,GENERAL DISORDERS AND ADMINISTRATION SITE CONDITIONS,NA,SEVERE,N,N,N,N,Y,N,Y,N,NONE,,FATAL,9,Y,,,Y,,,,,
CDISCPILOT01,701,01-701-1239,Xanomeline High Dose,81,56,<65,1,WHITE,1,M,Y,2014-01-11,2014-07-10,2014-01-12,,2,NA,NA,NA,,ERYTHEMA,ERYTHEMA,NA,ERYTHEMA,NA,HLT_0284,NA,HLGT_0192,NA,SKIN AND SUBCUTANEOUS TISSUE DISORDERS,SKIN AND SUBCUTANEOUS TISSUE DISORDERS,NA,MILD,N,N,N,N,N,N,N,N,POSSIBLE,,NOT RECOVERED/NOT RESOLVED,1,Y,Y,Y,Y,,,,DERMATOLOGIC EVENTS,Y
CDISCPILOT01,701,01-701-1239,Xanomeline High Dose,81,56,<65,1,WHITE,1,M,Y,2014-01-11,2014-07-10,2014-01-12,,2,NA,NA,NA,,SKIN ODOUR ABNORMAL,SKIN ODOR ABNORMAL,NA,SKIN ODOUR ABNORMAL,NA,HLT_0510,NA,HLGT_0184,NA,SKIN AND SUBCUTANEOUS TISSUE DISORDERS,SKIN AND SUBCUTANEOUS TISSUE DISORDERS,NA,MILD,N,N,N,N,N,N,N,N,REMOTE,,NOT RECOVERED/NOT RESOLVED,2,Y,,,Y,,,,DERMATOLOGIC EVENTS,
CDISCPILOT01,701,01-701-1239,Xanomeline High Dose,81,56,<65,1,WHITE,1,M,Y,2014-01-11,2014-07-10,2014-01-13,,3,NA,NA,NA,,PRURITUS,ITCHING,NA,PRURITUS,NA,HLT_0778,NA,HLGT_0695,NA,SKIN AND SUBCUTANEOUS TISSUE DISORDERS,SKIN AND SUBCUTANEOUS TISSUE DISORDERS,NA,MILD,N,N,N,N,N,N,N,N,POSSIBLE,,NOT RECOVERED/NOT RESOLVED,3,Y,,,Y,,,,DERMATOLOGIC EVENTS,
CDISCPILOT01,701,01-701-1239,Xanomeline High Dose,81,56,<65,1,WHITE,1,M,Y,2014-01-11,2014-07-10,2014-01-20,,10,2014-02-08,29,20,DAY,APPLICATION SITE IRRITATION,APPLICATION SITE IRRITATION,NA,APPLICATION SITE IRRITATION,NA,HLT_0061,NA,HLGT_0346,NA,GENERAL DISORDERS AND ADMINISTRATION SITE CONDITIONS,GENERAL DISORDERS AND ADMINISTRATION SITE CONDITIONS,NA,MILD,N,N,N,N,N,N,N,N,PROBABLE,,NOT RECOVERED/NOT RESOLVED,4,Y,,Y,Y,,,,DERMATOLOGIC EVENTS,
CDISCPILOT01,701,01-701-1239,Xanomeline High Dose,81,56,<65,1,WHITE,1,M,Y,2014-01-11,2014-07-10,2014-01-20,,10,2014-02-08,29,20,DAY,APPLICATION SITE IRRITATION,APPLICATION SITE IRRITATION,NA,APPLICATION SITE IRRITATION,NA,HLT_0061,NA,HLGT_0346,NA,GENERAL DISORDERS AND ADMINISTRATION SITE CONDITIONS,GENERAL DISORDERS AND ADMINISTRATION SITE CONDITIONS,NA,MILD,N,N,N,N,N,N,N,N,PROBABLE,,RECOVERED/RESOLVED,5,Y,,,,,,,DERMATOLOGIC EVENTS,
CDISCPILOT01,701,01-701-1239,Xanomeline High Dose,81,56,<65,1,WHITE,1,M,Y,2014-01-11,2014-07-10,2014-01-12,,2,NA,NA,NA,,ERYTHEMA,ERYTHEMA,NA,ERYTHEMA,NA,HLT_0284,NA,HLGT_0192,NA,SKIN AND SUBCUTANEOUS TISSUE DISORDERS,SKIN AND SUBCUTANEOUS TISSUE DISORDERS,NA,MODERATE,N,N,N,N,N,N,N,N,POSSIBLE,,NOT RECOVERED/NOT RESOLVED,6,Y,,,,,,,DERMATOLOGIC EVENTS,
CDISCPILOT01,701,01-701-1239,Xanomeline High Dose,81,56,<65,1,WHITE,1,M,Y,2014-01-11,2014-07-10,2014-02-20,,41,2014-03-12,61,21,DAY,UPPER RESPIRATORY TRACT INFECTION,UPPER RESPIRATORY INFECTION,NA,UPPER RESPIRATORY TRACT INFECTION,NA,HLT_0520,NA,HLGT_0489,NA,INFECTIONS AND INFESTATIONS,INFECTIONS AND INFESTATIONS,NA,MILD,N,N,N,N,N,N,N,N,NONE,,NOT RECOVERED/NOT RESOLVED,7,Y,,Y,Y,,,,,
CDISCPILOT01,701,01-701-1239,Xanomeline High Dose,81,56,<65,1,WHITE,1,M,Y,2014-01-11,2014-07-10,2014-02-20,,41,2014-03-12,61,21,DAY,UPPER RESPIRATORY TRACT INFECTION,UPPER RESPIRATORY INFECTION,NA,UPPER RESPIRATORY TRACT INFECTION,NA,HLT_0520,NA,HLGT_0489,NA,INFECTIONS AND INFESTATIONS,INFECTIONS AND INFESTATIONS,NA,MILD,N,N,N,N,N,N,N,N,NONE,,RECOVERED/RESOLVED,8,Y,,,,,,,,
CDISCPILOT01,701,01-701-1239,Xanomeline High Dose,81,56,<65,1,WHITE,1,M,Y,2014-01-11,2014-07-10,2014-03-01,D,50,NA,NA,NA,,FATIGUE,FATIGUE,NA,FATIGUE,NA,HLT_0043,NA,HLGT_0181,NA,GENERAL DISORDERS AND ADMINISTRATION SITE CONDITIONS,GENERAL DISORDERS AND ADMINISTRATION SITE CONDITIONS,NA,MILD,N,N,N,N,N,N,N,N,REMOTE,,NOT RECOVERED/NOT RESOLVED,9,Y,,,Y,,,,,
CDISCPILOT01,701,01-701-1239,Xanomeline High Dose,81,56,<65,1,WHITE,1,M,Y,2014-01-11,2014-07-10,2014-04-01,D,81,NA,NA,NA,,HORDEOLUM,STYE,NA,HORDEOLUM,NA,HLT_0604,NA,HLGT_0290,NA,INFECTIONS AND INFESTATIONS,INFECTIONS AND INFESTATIONS,NA,MILD,N,N,N,N,N,N,N,N,NONE,,NOT RECOVERED/NOT RESOLVED,10,Y,,,Y,,,,,
CDISCPILOT01,701,01-701-1275,Xanomeline High Dose,81,61,<65,1,AMERICAN INDIAN OR ALASKA NATIVE,6,M,Y,2014-02-07,2014-05-31,2014-02-13,,7,2014-06-03,117,111,DAY,NAUSEA,NAUSEA,NA,NAUSEA,NA,HLT_0742,NA,HLGT_0326,NA,GASTROINTESTINAL DISORDERS,GASTROINTESTINAL DISORDERS,NA,MILD,N,N,N,N,N,N,N,N,POSSIBLE,,NOT RECOVERED/NOT RESOLVED,1,Y,Y,Y,Y,,,,,
CDISCPILOT01,701,01-701-1275,Xanomeline High Dose,81,61,<65,1,AMERICAN INDIAN OR ALASKA NATIVE,6,M,Y,2014-02-07,2014-05-31,2014-02-23,,17,2014-02-23,17,1,DAY,VOMITING,VOMITING,NA,VOMITING,NA,HLT_0016,NA,HLGT_0350,NA,GASTROINTESTINAL DISORDERS,GASTROINTESTINAL DISORDERS,NA,MILD,N,N,N,N,N,N,N,N,POSSIBLE,,RECOVERED/RESOLVED,2,Y,,,Y,,,,,
CDISCPILOT01,701,01-701-1275,Xanomeline High Dose,81,61,<65,1,AMERICAN INDIAN OR ALASKA NATIVE,6,M,Y,2014-02-07,2014-05-31,2014-02-24,,18,2014-06-12,126,109,DAY,ERYTHEMA,ERYTHEMA,NA,ERYTHEMA,NA,HLT_0284,NA,HLGT_0192,NA,SKIN AND SUBCUTANEOUS TISSUE DISORDERS,SKIN AND SUBCUTANEOUS TISSUE DISORDERS,NA,MILD,N,N,N,N,N,N,N,N,POSSIBLE,,NOT RECOVERED/NOT RESOLVED,3,Y,,Y,Y,,,,DERMATOLOGIC EVENTS,Y
CDISCPILOT01,701,01-701-1275,Xanomeline High Dose,81,61,<65,1,AMERICAN INDIAN OR ALASKA NATIVE,6,M,Y,2014-02-07,2014-05-31,2014-02-24,,18,2014-06-03,117,100,DAY,SALIVARY HYPERSECRETION,HYPERSALIVATION,NA,SALIVARY HYPERSECRETION,NA,HLT_0374,NA,HLGT_0488,NA,GASTROINTESTINAL DISORDERS,GASTROINTESTINAL DISORDERS,NA,MILD,N,N,N,N,N,N,N,N,POSSIBLE,,NOT RECOVERED/NOT RESOLVED,4,Y,,,Y,,,,,
CDISCPILOT01,701,01-701-1275,Xanomeline High Dose,81,61,<65,1,AMERICAN INDIAN OR ALASKA NATIVE,6,M,Y,2014-02-07,2014-05-31,2014-02-24,,18,2014-06-03,117,100,DAY,PAROSMIA,STRANGE SMELL SENSATION,NA,PAROSMIA,NA,HLT_0258,NA,HLGT_0471,NA,NERVOUS SYSTEM DISORDERS,NERVOUS SYSTEM DISORDERS,NA,MILD,N,N,N,N,N,N,N,N,POSSIBLE,,NOT RECOVERED/NOT RESOLVED,5,Y,,Y,Y,,,,,
CDISCPILOT01,701,01-701-1275,Xanomeline High Dose,81,61,<65,1,AMERICAN INDIAN OR ALASKA NATIVE,6,M,Y,2014-02-07,2014-05-31,2014-02-24,,18,2014-06-12,126,109,DAY,PRURITUS,ITCHING,NA,PRURITUS,NA,HLT_0778,NA,HLGT_0695,NA,SKIN AND SUBCUTANEOUS TISSUE DISORDERS,SKIN AND SUBCUTANEOUS TISSUE DISORDERS,NA,MILD,N,N,N,N,N,N,N,N,POSSIBLE,,NOT RECOVERED/NOT RESOLVED,6,Y,,,Y,,,,DERMATOLOGIC EVENTS,
CDISCPILOT01,701,01-701-1275,Xanomeline High Dose,81,61,<65,1,AMERICAN INDIAN OR ALASKA NATIVE,6,M,Y,2014-02-07,2014-05-31,2014-03-12,,34,2014-03-27,49,16,DAY,COUGH,COUGH,NA,COUGH,NA,HLT_0701,NA,HLGT_0280,NA,"RESPIRATORY, THORACIC AND MEDIASTINAL DISORDERS","RESPIRATORY, THORACIC AND MEDIASTINAL DISORDERS",NA,MILD,N,N,N,N,N,N,N,N,NONE,,NOT RECOVERED/NOT RESOLVED,7,Y,,Y,Y,,,,,
CDISCPILOT01,701,01-701-1275,Xanomeline High Dose,81,61,<65,1,AMERICAN INDIAN OR ALASKA NATIVE,6,M,Y,2014-02-07,2014-05-31,2014-03-12,,34,2014-03-27,49,16,DAY,NASAL CONGESTION,NASAL CONGESTION,NA,NASAL CONGESTION,NA,HLT_0118,NA,HLGT_0549,NA,"RESPIRATORY, THORACIC AND MEDIASTINAL DISORDERS","RESPIRATORY, THORACIC AND MEDIASTINAL DISORDERS",NA,MILD,N,N,N,N,N,N,N,N,NONE,,NOT RECOVERED/NOT RESOLVED,8,Y,,,Y,,,,,
CDISCPILOT01,701,01-701-1275,Xanomeline High Dose,81,61,<65,1,AMERICAN INDIAN OR ALASKA NATIVE,6,M,Y,2014-02-07,2014-05-31,2014-03-12,,34,2014-03-27,49,16,DAY,COUGH,COUGH,NA,COUGH,NA,HLT_0701,NA,HLGT_0280,NA,"RESPIRATORY, THORACIC AND MEDIASTINAL DISORDERS","RESPIRATORY, THORACIC AND MEDIASTINAL DISORDERS",NA,MILD,N,N,N,N,N,N,N,N,NONE,,RECOVERED/RESOLVED,9,Y,,,,,,,,
CDISCPILOT01,701,01-701-1275,Xanomeline High Dose,81,61,<65,1,AMERICAN INDIAN OR ALASKA NATIVE,6,M,Y,2014-02-07,2014-05-31,2014-03-12,,34,2014-03-27,49,16,DAY,NASAL CONGESTION,NASAL CONGESTION,NA,NASAL CONGESTION,NA,HLT_0118,NA,HLGT_0549,NA,"RESPIRATORY, THORACIC AND MEDIASTINAL DISORDERS","RESPIRATORY, THORACIC AND MEDIASTINAL DISORDERS",NA,MILD,N,N,N,N,N,N,N,N,NONE,,RECOVERED/RESOLVED,10,Y,,,,,,,,
CDISCPILOT01,701,01-701-1275,Xanomeline High Dose,81,61,<65,1,AMERICAN INDIAN OR ALASKA NATIVE,6,M,Y,2014-02-07,2014-05-31,2014-02-13,,7,2014-06-03,117,111,DAY,NAUSEA,NAUSEA,NA,NAUSEA,NA,HLT_0742,NA,HLGT_0326,NA,GASTROINTESTINAL DISORDERS,GASTROINTESTINAL DISORDERS,NA,MILD,N,N,N,N,N,N,N,N,POSSIBLE,,RECOVERED/RESOLVED,11,Y,,,,,,,,
CDISCPILOT01,701,01-701-1275,Xanomeline High Dose,81,61,<65,1,AMERICAN INDIAN OR ALASKA NATIVE,6,M,Y,2014-02-07,2014-05-31,2014-02-24,,18,2014-06-12,126,109,DAY,ERYTHEMA,ERYTHEMA,NA,ERYTHEMA,NA,HLT_0284,NA,HLGT_0192,NA,SKIN AND SUBCUTANEOUS TISSUE DISORDERS,SKIN AND SUBCUTANEOUS TISSUE DISORDERS,NA,MILD,N,N,N,N,N,N,N,N,POSSIBLE,,RECOVERED/RESOLVED,12,Y,,,,,,,DERMATOLOGIC EVENTS,
CDISCPILOT01,701,01-701-1275,Xanomeline High Dose,81,61,<65,1,AMERICAN INDIAN OR ALASKA NATIVE,6,M,Y,2014-02-07,2014-05-31,2014-02-24,,18,2014-06-03,117,100,DAY,SALIVARY HYPERSECRETION,HYPERSALIVATION,NA,SALIVARY HYPERSECRETION,NA,HLT_0374,NA,HLGT_0488,NA,GASTROINTESTINAL DISORDERS,GASTROINTESTINAL DISORDERS,NA,MILD,N,N,N,N,N,N,N,N,POSSIBLE,,RECOVERED/RESOLVED,13,Y,,,,,,,,
CDISCPILOT01,701,01-701-1275,Xanomeline High Dose,81,61,<65,1,AMERICAN INDIAN OR ALASKA NATIVE,6,M,Y,2014-02-07,2014-05-31,2014-02-24,,18,2014-06-03,117,100,DAY,PAROSMIA,STRANGE SMELL SENSATION,NA,PAROSMIA,NA,HLT_0258,NA,HLGT_0471,NA,NERVOUS SYSTEM DISORDERS,NERVOUS SYSTEM DISORDERS,NA,MILD,N,N,N,N,N,N,N,N,POSSIBLE,,RECOVERED/RESOLVED,14,Y,,,,,,,,
CDISCPILOT01,701,01-701-1275,Xanomeline High Dose,81,61,<65,1,AMERICAN INDIAN OR ALASKA NATIVE,6,M,Y,2014-02-07,2014-05-31,2014-02-24,,18,2014-06-12,126,109,DAY,PRURITUS,ITCHING,NA,PRURITUS,NA,HLT_0778,NA,HLGT_0695,NA,SKIN AND SUBCUTANEOUS TISSUE DISORDERS,SKIN AND SUBCUTANEOUS TISSUE DISORDERS,NA,MILD,N,N,N,N,N,N,N,N,POSSIBLE,,RECOVERED/RESOLVED,15,Y,,,,,,,DERMATOLOGIC EVENTS,
CDISCPILOT01,701,01-701-1287,Xanomeline High Dose,81,56,<65,1,WHITE,1,F,Y,2014-01-25,2014-07-26,2014-01-26,,2,NA,NA,NA,,SALIVARY HYPERSECRETION,INCREASED SALIVATION,NA,SALIVARY HYPERSECRETION,NA,HLT_0374,NA,HLGT_0488,NA,GASTROINTESTINAL DISORDERS,GASTROINTESTINAL DISORDERS,NA,MILD,N,N,N,N,N,N,N,N,NONE,,NOT RECOVERED/NOT RESOLVED,1,Y,Y,Y,Y,,,,,
CDISCPILOT01,701,01-701-1287,Xanomeline High Dose,81,56,<65,1,WHITE,1,F,Y,2014-01-25,2014-07-26,2014-02-22,,29,NA,NA,NA,,APPLICATION SITE PRURITUS,APPLICATION SITE ITCHING,NA,APPLICATION SITE PRURITUS,NA,HLT_0317,NA,HLGT_0338,NA,GENERAL DISORDERS AND ADMINISTRATION SITE CONDITIONS,GENERAL DISORDERS AND ADMINISTRATION SITE CONDITIONS,NA,MILD,N,N,N,N,N,N,N,N,POSSIBLE,,NOT RECOVERED/NOT RESOLVED,2,Y,,Y,Y,,,,DERMATOLOGIC EVENTS,Y
CDISCPILOT01,701,01-701-1287,Xanomeline High Dose,81,56,<65,1,WHITE,1,F,Y,2014-01-25,2014-07-26,2014-03-09,,44,NA,NA,NA,,APPLICATION SITE ERYTHEMA,APPLICATION SITE REDNESS,NA,APPLICATION SITE ERYTHEMA,NA,HLT_0617,NA,HLGT_0152,NA,GENERAL DISORDERS AND ADMINISTRATION SITE CONDITIONS,GENERAL DISORDERS AND ADMINISTRATION SITE CONDITIONS,NA,MILD,N,N,N,N,N,N,N,N,PROBABLE,,NOT RECOVERED/NOT RESOLVED,3,Y,,,Y,,,,DERMATOLOGIC EVENTS,
CDISCPILOT01,701,01-701-1287,Xanomeline High Dose,81,56,<65,1,WHITE,1,F,Y,2014-01-25,2014-07-26,2014-07-09,,166,2014-07-12,169,4,DAY,RHINORRHOEA,RUNNY NOSE,NA,RHINORRHOEA,NA,HLT_0635,NA,HLGT_0460,NA,"RESPIRATORY, THORACIC AND MEDIASTINAL DISORDERS","RESPIRATORY, THORACIC AND MEDIASTINAL DISORDERS",NA,MILD,N,N,N,N,N,N,N,N,NONE,,NOT RECOVERED/NOT RESOLVED,4,Y,,Y,Y,,,,,
CDISCPILOT01,701,01-701-1287,Xanomeline High Dose,81,56,<65,1,WHITE,1,F,Y,2014-01-25,2014-07-26,2014-07-09,,166,2014-07-12,169,4,DAY,RHINORRHOEA,RUNNY NOSE,NA,RHINORRHOEA,NA,HLT_0635,NA,HLGT_0460,NA,"RESPIRATORY, THORACIC AND MEDIASTINAL DISORDERS","RESPIRATORY, THORACIC AND MEDIASTINAL DISORDERS",NA,MILD,N,N,N,N,N,N,N,N,NONE,,RECOVERED/RESOLVED,5,Y,,,,,,,,
CDISCPILOT01,701,01-701-1294,Xanomeline Low Dose,54,67,65-80,2,WHITE,1,M,Y,2013-03-24,2013-06-14,2013-03-22,,-2,2013-03-23,-1,2,DAY,APPLICATION SITE PRURITUS,APPLICATION SITE ITCHING,NA,APPLICATION SITE PRURITUS,NA,HLT_0317,NA,HLGT_0338,NA,GENERAL DISORDERS AND ADMINISTRATION SITE CONDITIONS,GENERAL DISORDERS AND ADMINISTRATION SITE CONDITIONS,NA,MODERATE,N,N,N,N,N,N,N,N,NONE,,RECOVERED/RESOLVED,1,N,,,,,,,DERMATOLOGIC EVENTS,
CDISCPILOT01,701,01-701-1294,Xanomeline Low Dose,54,67,65-80,2,WHITE,1,M,Y,2013-03-24,2013-06-14,2013-05-19,,57,NA,NA,NA,,APPLICATION SITE PRURITUS,APPLICATION SITE ITCHING,NA,APPLICATION SITE PRURITUS,NA,HLT_0317,NA,HLGT_0338,NA,GENERAL DISORDERS AND ADMINISTRATION SITE CONDITIONS,GENERAL DISORDERS AND ADMINISTRATION SITE CONDITIONS,NA,MILD,N,N,N,N,N,N,N,N,POSSIBLE,,NOT RECOVERED/NOT RESOLVED,2,Y,Y,Y,Y,,,,DERMATOLOGIC EVENTS,Y
CDISCPILOT01,701,01-701-1294,Xanomeline Low Dose,54,67,65-80,2,WHITE,1,M,Y,2013-03-24,2013-06-14,2013-05-19,,57,NA,NA,NA,,APPLICATION SITE ERYTHEMA,APPLICATION SITE REDNESS,NA,APPLICATION SITE ERYTHEMA,NA,HLT_0617,NA,HLGT_0152,NA,GENERAL DISORDERS AND ADMINISTRATION SITE CONDITIONS,GENERAL DISORDERS AND ADMINISTRATION SITE CONDITIONS,NA,MILD,N,N,N,N,N,N,N,N,PROBABLE,,NOT RECOVERED/NOT RESOLVED,3,Y,,,Y,,,,DERMATOLOGIC EVENTS,
CDISCPILOT01,701,01-701-1294,Xanomeline Low Dose,54,67,65-80,2,WHITE,1,M,Y,2013-03-24,2013-06-14,2013-05-19,,57,NA,NA,NA,,APPLICATION SITE PRURITUS,APPLICATION SITE ITCHING,NA,APPLICATION SITE PRURITUS,NA,HLT_0317,NA,HLGT_0338,NA,GENERAL DISORDERS AND ADMINISTRATION SITE CONDITIONS,GENERAL DISORDERS AND ADMINISTRATION SITE CONDITIONS,NA,MODERATE,N,N,N,N,N,N,N,N,POSSIBLE,,NOT RECOVERED/NOT RESOLVED,4,Y,,,,,,,DERMATOLOGIC EVENTS,
CDISCPILOT01,701,01-701-1294,Xanomeline Low Dose,54,67,65-80,2,WHITE,1,M,Y,2013-03-24,2013-06-14,2013-05-19,,57,NA,NA,NA,,APPLICATION SITE ERYTHEMA,APPLICATION SITE REDNESS,NA,APPLICATION SITE ERYTHEMA,NA,HLT_0617,NA,HLGT_0152,NA,GENERAL DISORDERS AND ADMINISTRATION SITE CONDITIONS,GENERAL DISORDERS AND ADMINISTRATION SITE CONDITIONS,NA,MODERATE,N,N,N,N,N,N,N,N,PROBABLE,,NOT RECOVERED/NOT RESOLVED,5,Y,,,,,,,DERMATOLOGIC EVENTS,
CDISCPILOT01,701,01-701-1294,Xanomeline Low Dose,54,67,65-80,2,WHITE,1,M,Y,2013-03-24,2013-06-14,2013-06-10,,79,NA,NA,NA,,RASH ERYTHEMATOUS,ERYTHEMATOUS RASH,NA,RASH ERYTHEMATOUS,NA,HLT_0336,NA,HLGT_0701,NA,SKIN AND SUBCUTANEOUS TISSUE DISORDERS,SKIN AND SUBCUTANEOUS TISSUE DISORDERS,NA,MODERATE,N,N,N,N,N,N,N,N,PROBABLE,,NOT RECOVERED/NOT RESOLVED,6,Y,,Y,Y,,,,DERMATOLOGIC EVENTS,
CDISCPILOT01,701,01-701-1302,Xanomeline High Dose,81,61,<65,1,WHITE,1,M,Y,2013-08-29,2013-11-05,2013-08-30,,2,NA,NA,NA,,APPLICATION SITE PERSPIRATION,APPLICATION SITE PERSPIRATION,NA,APPLICATION SITE PERSPIRATION,NA,HLT_0283,NA,HLGT_0403,NA,GENERAL DISORDERS AND ADMINISTRATION SITE CONDITIONS,GENERAL DISORDERS AND ADMINISTRATION SITE CONDITIONS,NA,MILD,N,N,N,N,N,N,N,N,POSSIBLE,,NOT RECOVERED/NOT RESOLVED,1,Y,Y,Y,Y,,,,DERMATOLOGIC EVENTS,Y
CDISCPILOT01,701,01-701-1302,Xanomeline High Dose,81,61,<65,1,WHITE,1,M,Y,2013-08-29,2013-11-05,2013-08-30,,2,NA,NA,NA,,HYPERHIDROSIS,PERSPIRATION EXCESSIVE,NA,HYPERHIDROSIS,NA,HLT_0587,NA,HLGT_0005,NA,SKIN AND SUBCUTANEOUS TISSUE DISORDERS,SKIN AND SUBCUTANEOUS TISSUE DISORDERS,NA,MILD,N,N,N,N,N,N,N,N,POSSIBLE,,NOT RECOVERED/NOT RESOLVED,2,Y,,Y,Y,,,,,
CDISCPILOT01,701,01-701-1302,Xanomeline High Dose,81,61,<65,1,WHITE,1,M,Y,2013-08-29,2013-11-05,2013-08-30,,2,NA,NA,NA,,STOMACH DISCOMFORT,STOMACH UPSET,NA,STOMACH DISCOMFORT,NA,HLT_0065,NA,HLGT_0183,NA,GASTROINTESTINAL DISORDERS,GASTROINTESTINAL DISORDERS,NA,MILD,N,N,N,N,N,N,N,N,POSSIBLE,,NOT RECOVERED/NOT RESOLVED,3,Y,,Y,Y,,,,,
CDISCPILOT01,701,01-701-1302,Xanomeline High Dose,81,61,<65,1,WHITE,1,M,Y,2013-08-29,2013-11-05,2013-08-31,,3,NA,NA,NA,,PAIN,STINGING,NA,PAIN,NA,HLT_0314,NA,HLGT_0478,NA,GENERAL DISORDERS AND ADMINISTRATION SITE CONDITIONS,GENERAL DISORDERS AND ADMINISTRATION SITE CONDITIONS,NA,MILD,N,N,N,N,N,N,N,N,POSSIBLE,,NOT RECOVERED/NOT RESOLVED,4,Y,,,Y,,,,,
CDISCPILOT01,701,01-701-1302,Xanomeline High Dose,81,61,<65,1,WHITE,1,M,Y,2013-08-29,2013-11-05,2013-09-01,,4,NA,NA,NA,,NASAL CONGESTION,NASAL CONGESTION,NA,NASAL CONGESTION,NA,HLT_0118,NA,HLGT_0549,NA,"RESPIRATORY, THORACIC AND MEDIASTINAL DISORDERS","RESPIRATORY, THORACIC AND MEDIASTINAL DISORDERS",NA,MILD,N,N,N,N,N,N,N,N,NONE,,NOT RECOVERED/NOT RESOLVED,5,Y,,Y,Y,,,,,
CDISCPILOT01,701,01-701-1302,Xanomeline High Dose,81,61,<65,1,WHITE,1,M,Y,2013-08-29,2013-11-05,2013-09-02,,5,NA,NA,NA,,PHARYNGOLARYNGEAL PAIN,SORE THROAT,NA,PHARYNGOLARYNGEAL PAIN,NA,HLT_0130,NA,HLGT_0402,NA,"RESPIRATORY, THORACIC AND MEDIASTINAL DISORDERS","RESPIRATORY, THORACIC AND MEDIASTINAL DISORDERS",NA,MILD,N,N,N,N,N,N,N,N,NONE,,NOT RECOVERED/NOT RESOLVED,6,Y,,,Y,,,,,
CDISCPILOT01,701,01-701-1302,Xanomeline High Dose,81,61,<65,1,WHITE,1,M,Y,2013-08-29,2013-11-05,2013-09-02,,5,NA,NA,NA,,PRODUCTIVE COUGH,PRODUCTIVE COUGH,NA,PRODUCTIVE COUGH,NA,HLT_0545,NA,HLGT_0681,NA,"RESPIRATORY, THORACIC AND MEDIASTINAL DISORDERS","RESPIRATORY, THORACIC AND MEDIASTINAL DISORDERS",NA,MILD,N,N,N,N,N,N,N,N,NONE,,NOT RECOVERED/NOT RESOLVED,7,Y,,,Y,,,,,
CDISCPILOT01,701,01-701-1302,Xanomeline High Dose,81,61,<65,1,WHITE,1,M,Y,2013-08-29,2013-11-05,2013-09-02,,5,NA,NA,NA,,MALAISE,MALAISE,NA,MALAISE,NA,HLT_0456,NA,HLGT_0178,NA,GENERAL DISORDERS AND ADMINISTRATION SITE CONDITIONS,GENERAL DISORDERS AND ADMINISTRATION SITE CONDITIONS,NA,MILD,N,N,N,N,N,N,N,N,REMOTE,,NOT RECOVERED/NOT RESOLVED,8,Y,,,Y,,,,,
CDISCPILOT01,701,01-701-1302,Xanomeline High Dose,81,61,<65,1,WHITE,1,M,Y,2013-08-29,2013-11-05,2013-09-02,,5,2013-09-03,6,2,DAY,DIZZINESS,DIZZY,NA,DIZZINESS,NA,HLT_0619,NA,HLGT_0751,NA,NERVOUS SYSTEM DISORDERS,NERVOUS SYSTEM DISORDERS,NA,MODERATE,N,N,N,N,N,N,N,N,REMOTE,,RECOVERED/RESOLVED,9,Y,,Y,Y,,,,,
CDISCPILOT01,701,01-701-1302,Xanomeline High Dose,81,61,<65,1,WHITE,1,M,Y,2013-08-29,2013-11-05,2013-09-02,,5,NA,NA,NA,,MYALGIA,MYALGIA,NA,MYALGIA,NA,HLT_0700,NA,HLGT_0121,NA,MUSCULOSKELETAL AND CONNECTIVE TISSUE DISORDERS,MUSCULOSKELETAL AND CONNECTIVE TISSUE DISORDERS,NA,MILD,N,N,N,N,N,N,N,N,POSSIBLE,,NOT RECOVERED/NOT RESOLVED,10,Y,,Y,Y,,,,,
CDISCPILOT01,701,01-701-1302,Xanomeline High Dose,81,61,<65,1,WHITE,1,M,Y,2013-08-29,2013-11-05,2013-09-04,,7,NA,NA,NA,,DIZZINESS,LIGHTHEADEDNESS,NA,DIZZINESS,NA,HLT_0619,NA,HLGT_0751,NA,NERVOUS SYSTEM DISORDERS,NERVOUS SYSTEM DISORDERS,NA,MILD,N,N,N,N,N,N,N,N,POSSIBLE,,NOT RECOVERED/NOT RESOLVED,11,Y,,,,,,,,
CDISCPILOT01,701,01-701-1302,Xanomeline High Dose,81,61,<65,1,WHITE,1,M,Y,2013-08-29,2013-11-05,2013-09-05,,8,2013-10-08,41,34,DAY,CONTUSION,BRUISE,NA,CONTUSION,NA,HLT_0713,NA,HLGT_0381,NA,"INJURY, POISONING AND PROCEDURAL COMPLICATIONS","INJURY, POISONING AND PROCEDURAL COMPLICATIONS",NA,MILD,N,N,N,N,N,N,N,N,REMOTE,,NOT RECOVERED/NOT RESOLVED,12,Y,,Y,Y,,,,,
CDISCPILOT01,701,01-701-1302,Xanomeline High Dose,81,61,<65,1,WHITE,1,M,Y,2013-08-29,2013-11-05,2013-09-15,,18,NA,NA,NA,,HEADACHE,HEADACHE,NA,HEADACHE,NA,HLT_0064,NA,HLGT_0344,NA,NERVOUS SYSTEM DISORDERS,NERVOUS SYSTEM DISORDERS,NA,MILD,N,N,N,N,N,N,N,N,NONE,,NOT RECOVERED/NOT RESOLVED,13,Y,,,Y,,,,,
CDISCPILOT01,701,01-701-1302,Xanomeline High Dose,81,61,<65,1,WHITE,1,M,Y,2013-08-29,2013-11-05,2013-09-30,,33,NA,NA,NA,,EPISTAXIS,NOSE BLEED,NA,EPISTAXIS,NA,HLT_0386,NA,HLGT_0577,NA,"RESPIRATORY, THORACIC AND MEDIASTINAL DISORDERS","RESPIRATORY, THORACIC AND MEDIASTINAL DISORDERS",NA,MILD,N,N,N,N,N,N,N,N,REMOTE,,NOT RECOVERED/NOT RESOLVED,14,Y,,,Y,,,,,
CDISCPILOT01,701,01-701-1302,Xanomeline High Dose,81,61,<65,1,WHITE,1,M,Y,2013-08-29,2013-11-05,2013-09-05,,8,2013-10-08,41,34,DAY,CONTUSION,BRUISE,NA,CONTUSION,NA,HLT_0713,NA,HLGT_0381,NA,"INJURY, POISONING AND PROCEDURAL COMPLICATIONS","INJURY, POISONING AND PROCEDURAL COMPLICATIONS",NA,MILD,N,N,N,N,N,N,N,N,REMOTE,,RECOVERED/RESOLVED,15,Y,,,,,,,,
CDISCPILOT01,701,01-701-1302,Xanomeline High Dose,81,61,<65,1,WHITE,1,M,Y,2013-08-29,2013-11-05,2013-10-15,,48,NA,NA,NA,,APPLICATION SITE ERYTHEMA,APPLICATION SITE REDNESS,NA,APPLICATION SITE ERYTHEMA,NA,HLT_0617,NA,HLGT_0152,NA,GENERAL DISORDERS AND ADMINISTRATION SITE CONDITIONS,GENERAL DISORDERS AND ADMINISTRATION SITE CONDITIONS,NA,MILD,N,N,N,N,N,N,N,N,PROBABLE,,NOT RECOVERED/NOT RESOLVED,16,Y,,,Y,,,,DERMATOLOGIC EVENTS,
CDISCPILOT01,701,01-701-1302,Xanomeline High Dose,81,61,<65,1,WHITE,1,M,Y,2013-08-29,2013-11-05,2013-10-15,,48,NA,NA,NA,,APPLICATION SITE PRURITUS,APPLICATION SITE ITCHING,NA,APPLICATION SITE PRURITUS,NA,HLT_0317,NA,HLGT_0338,NA,GENERAL DISORDERS AND ADMINISTRATION SITE CONDITIONS,GENERAL DISORDERS AND ADMINISTRATION SITE CONDITIONS,NA,MILD,N,N,N,N,N,N,N,N,PROBABLE,,NOT RECOVERED/NOT RESOLVED,17,Y,,,Y,,,,DERMATOLOGIC EVENTS,
CDISCPILOT01,701,01-701-1302,Xanomeline High Dose,81,61,<65,1,WHITE,1,M,Y,2013-08-29,2013-11-05,2013-09-02,,5,NA,NA,NA,,MALAISE,MALAISE,NA,MALAISE,NA,HLT_0456,NA,HLGT_0178,NA,GENERAL DISORDERS AND ADMINISTRATION SITE CONDITIONS,GENERAL DISORDERS AND ADMINISTRATION SITE CONDITIONS,NA,MODERATE,N,N,N,N,N,N,N,N,REMOTE,,NOT RECOVERED/NOT RESOLVED,18,Y,,,,,,,,
CDISCPILOT01,701,01-701-1302,Xanomeline High Dose,81,61,<65,1,WHITE,1,M,Y,2013-08-29,2013-11-05,2013-10-23,,56,NA,NA,NA,,RESPIRATORY TRACT CONGESTION,RESPIRATORY TRACT CONGESTION,NA,RESPIRATORY TRACT CONGESTION,NA,HLT_0330,NA,HLGT_0424,NA,"RESPIRATORY, THORACIC AND MEDIASTINAL DISORDERS","RESPIRATORY, THORACIC AND MEDIASTINAL DISORDERS",NA,MILD,N,N,N,N,N,N,N,N,NONE,,NOT RECOVERED/NOT RESOLVED,19,Y,,,Y,,,,,
CDISCPILOT01,701,01-701-1302,Xanomeline High Dose,81,61,<65,1,WHITE,1,M,Y,2013-08-29,2013-11-05,2013-10-23,,56,NA,NA,NA,,RHINITIS,CORYZA,NA,RHINITIS,NA,HLT_0239,NA,HLGT_0322,NA,INFECTIONS AND INFESTATIONS,INFECTIONS AND INFESTATIONS,NA,MILD,N,N,N,N,N,N,N,N,NONE,,NOT RECOVERED/NOT RESOLVED,20,Y,,Y,Y,,,,,
CDISCPILOT01,701,01-701-1302,Xanomeline High Dose,81,61,<65,1,WHITE,1,M,Y,2013-08-29,2013-11-05,2013-10-24,,57,NA,NA,NA,,FEELING ABNORMAL,FOGGY FEELING IN HEAD,NA,FEELING ABNORMAL,NA,HLT_0524,NA,HLGT_0749,NA,GENERAL DISORDERS AND ADMINISTRATION SITE CONDITIONS,GENERAL DISORDERS AND ADMINISTRATION SITE CONDITIONS,NA,MILD,N,N,N,N,N,N,N,N,POSSIBLE,,NOT RECOVERED/NOT RESOLVED,21,Y,,,Y,,,,,
CDISCPILOT01,701,01-701-1302,Xanomeline High Dose,81,61,<65,1,WHITE,1,M,Y,2013-08-29,2013-11-05,2013-10-24,,57,NA,NA,NA,,LISTLESS,LISTLESSNESS,NA,LISTLESS,NA,HLT_0657,NA,HLGT_0124,NA,PSYCHIATRIC DISORDERS,PSYCHIATRIC DISORDERS,NA,MILD,N,N,N,N,N,N,N,N,POSSIBLE,,NOT RECOVERED/NOT RESOLVED,22,Y,,Y,Y,,,,,
CDISCPILOT01,701,01-701-1302,Xanomeline High Dose,81,61,<65,1,WHITE,1,M,Y,2013-08-29,2013-11-05,2013-10-24,,57,NA,NA,NA,,LIBIDO DECREASED,LIBIDO DECREASED,NA,LIBIDO DECREASED,NA,HLT_0338,NA,HLGT_0496,NA,PSYCHIATRIC DISORDERS,PSYCHIATRIC DISORDERS,NA,MILD,N,N,N,N,N,N,N,N,POSSIBLE,,NOT RECOVERED/NOT RESOLVED,23,Y,,,Y,,,,,
CDISCPILOT01,701,01-701-1317,Xanomeline Low Dose,54,68,65-80,2,WHITE,1,M,Y,2014-05-22,2014-11-20,2014-05-13,,-9,NA,NA,NA,,ONYCHOMYCOSIS,ONYCHOMYCOSIS,NA,ONYCHOMYCOSIS,NA,HLT_0275,NA,HLGT_0243,NA,INFECTIONS AND INFESTATIONS,INFECTIONS AND INFESTATIONS,NA,MILD,N,N,N,N,N,N,N,N,NONE,,NOT RECOVERED/NOT RESOLVED,1,N,,,,,,,,
CDISCPILOT01,701,01-701-1317,Xanomeline Low Dose,54,68,65-80,2,WHITE,1,M,Y,2014-05-22,2014-11-20,2014-05-13,,-9,NA,NA,NA,,CYST,CYST,NA,CYST,NA,HLT_0763,NA,HLGT_0341,NA,GENERAL DISORDERS AND ADMINISTRATION SITE CONDITIONS,GENERAL DISORDERS AND ADMINISTRATION SITE CONDITIONS,NA,MILD,N,N,N,N,N,N,N,N,NONE,,NOT RECOVERED/NOT RESOLVED,2,N,,,,,,,,
CDISCPILOT01,701,01-701-1317,Xanomeline Low Dose,54,68,65-80,2,WHITE,1,M,Y,2014-05-22,2014-11-20,2014-06-23,,33,NA,NA,NA,,APPLICATION SITE ERYTHEMA,APPLICATION SITE REDNESS,NA,APPLICATION SITE ERYTHEMA,NA,HLT_0617,NA,HLGT_0152,NA,GENERAL DISORDERS AND ADMINISTRATION SITE CONDITIONS,GENERAL DISORDERS AND ADMINISTRATION SITE CONDITIONS,NA,MILD,N,N,N,N,N,N,N,N,POSSIBLE,,NOT RECOVERED/NOT RESOLVED,3,Y,Y,Y,Y,,,,DERMATOLOGIC EVENTS,Y
CDISCPILOT01,701,01-701-1317,Xanomeline Low Dose,54,68,65-80,2,WHITE,1,M,Y,2014-05-22,2014-11-20,2014-06-23,,33,NA,NA,NA,,APPLICATION SITE PRURITUS,APPLICATION SITE ITCHING,NA,APPLICATION SITE PRURITUS,NA,HLT_0317,NA,HLGT_0338,NA,GENERAL DISORDERS AND ADMINISTRATION SITE CONDITIONS,GENERAL DISORDERS AND ADMINISTRATION SITE CONDITIONS,NA,MILD,N,N,N,N,N,N,N,N,POSSIBLE,,NOT RECOVERED/NOT RESOLVED,4,Y,,,Y,,,,DERMATOLOGIC EVENTS,
CDISCPILOT01,701,01-701-1317,Xanomeline Low Dose,54,68,65-80,2,WHITE,1,M,Y,2014-05-22,2014-11-20,2014-06-23,,33,NA,NA,NA,,APPLICATION SITE URTICARIA,APPLICATION SITE URTICARIA,NA,APPLICATION SITE URTICARIA,NA,HLT_0196,NA,HLGT_0233,NA,GENERAL DISORDERS AND ADMINISTRATION SITE CONDITIONS,GENERAL DISORDERS AND ADMINISTRATION SITE CONDITIONS,NA,MILD,N,N,N,N,N,N,N,N,POSSIBLE,,NOT RECOVERED/NOT RESOLVED,5,Y,,,Y,,,,DERMATOLOGIC EVENTS,
CDISCPILOT01,701,01-701-1317,Xanomeline Low Dose,54,68,65-80,2,WHITE,1,M,Y,2014-05-22,2014-11-20,2014-07-04,,44,NA,NA,NA,,DEPRESSED MOOD,DEPRESSED MOOD,NA,DEPRESSED MOOD,NA,HLT_0784,NA,HLGT_0122,NA,PSYCHIATRIC DISORDERS,PSYCHIATRIC DISORDERS,NA,MILD,N,N,N,N,N,N,N,N,POSSIBLE,,NOT RECOVERED/NOT RESOLVED,6,Y,,Y,Y,,,,,
CDISCPILOT01,701,01-701-1317,Xanomeline Low Dose,54,68,65-80,2,WHITE,1,M,Y,2014-05-22,2014-11-20,2014-07-04,,44,NA,NA,NA,,DEPRESSED MOOD,DEPRESSED MOOD,NA,DEPRESSED MOOD,NA,HLT_0784,NA,HLGT_0122,NA,PSYCHIATRIC DISORDERS,PSYCHIATRIC DISORDERS,NA,MODERATE,N,N,N,N,N,N,N,N,POSSIBLE,,NOT RECOVERED/NOT RESOLVED,7,Y,,,,,,,,
CDISCPILOT01,701,01-701-1317,Xanomeline Low Dose,54,68,65-80,2,WHITE,1,M,Y,2014-05-22,2014-11-20,2014-09-12,,114,NA,NA,NA,,FATIGUE,TIREDNESS,NA,FATIGUE,NA,HLT_0043,NA,HLGT_0181,NA,GENERAL DISORDERS AND ADMINISTRATION SITE CONDITIONS,GENERAL DISORDERS AND ADMINISTRATION SITE CONDITIONS,NA,MILD,N,N,N,N,N,N,N,N,REMOTE,,NOT RECOVERED/NOT RESOLVED,8,Y,,,Y,,,,,
CDISCPILOT01,701,01-701-1317,Xanomeline Low Dose,54,68,65-80,2,WHITE,1,M,Y,2014-05-22,2014-11-20,2014-11-03,,166,NA,NA,NA,,DYSPHONIA,HOARSENESS,NA,DYSPHONIA,NA,HLT_0073,NA,HLGT_0274,NA,"RESPIRATORY, THORACIC AND MEDIASTINAL DISORDERS","RESPIRATORY, THORACIC AND MEDIASTINAL DISORDERS",NA,MILD,N,N,N,N,N,N,N,N,REMOTE,,NOT RECOVERED/NOT RESOLVED,9,Y,,Y,Y,,,,,
CDISCPILOT01,701,01-701-1324,Xanomeline Low Dose,54,79,65-80,2,WHITE,1,M,Y,2012-10-02,2013-04-02,2012-10-22,,21,NA,NA,NA,,APPLICATION SITE ERYTHEMA,APPLICATION SITE ERYTHEMA,NA,APPLICATION SITE ERYTHEMA,NA,HLT_0617,NA,HLGT_0152,NA,GENERAL DISORDERS AND ADMINISTRATION SITE CONDITIONS,GENERAL DISORDERS AND ADMINISTRATION SITE CONDITIONS,NA,MILD,N,N,N,N,N,N,N,N,PROBABLE,,NOT RECOVERED/NOT RESOLVED,1,Y,Y,Y,Y,,,,DERMATOLOGIC EVENTS,Y
CDISCPILOT01,701,01-701-1324,Xanomeline Low Dose,54,79,65-80,2,WHITE,1,M,Y,2012-10-02,2013-04-02,2012-12-02,,62,NA,NA,NA,,APPLICATION SITE PRURITUS,APPLICATION SITE ITCHING,NA,APPLICATION SITE PRURITUS,NA,HLT_0317,NA,HLGT_0338,NA,GENERAL DISORDERS AND ADMINISTRATION SITE CONDITIONS,GENERAL DISORDERS AND ADMINISTRATION SITE CONDITIONS,NA,MILD,N,N,N,N,N,N,N,N,PROBABLE,,NOT RECOVERED/NOT RESOLVED,2,Y,,,Y,,,,DERMATOLOGIC EVENTS,
CDISCPILOT01,701,01-701-1324,Xanomeline Low Dose,54,79,65-80,2,WHITE,1,M,Y,2012-10-02,2013-04-02,2012-12-25,,85,2013-01-16,107,23,DAY,APPLICATION SITE VESICLES,APPLICATION SITE BLISTER,NA,APPLICATION SITE VESICLES,NA,HLT_0180,NA,HLGT_0576,NA,GENERAL DISORDERS AND ADMINISTRATION SITE CONDITIONS,GENERAL DISORDERS AND ADMINISTRATION SITE CONDITIONS,NA,MILD,N,N,N,N,N,N,N,N,PROBABLE,,NOT RECOVERED/NOT RESOLVED,3,Y,,,Y,,,,DERMATOLOGIC EVENTS,
CDISCPILOT01,701,01-701-1324,Xanomeline Low Dose,54,79,65-80,2,WHITE,1,M,Y,2012-10-02,2013-04-02,2012-12-25,,85,2013-01-16,107,23,DAY,APPLICATION SITE VESICLES,APPLICATION SITE BLISTER,NA,APPLICATION SITE VESICLES,NA,HLT_0180,NA,HLGT_0576,NA,GENERAL DISORDERS AND ADMINISTRATION SITE CONDITIONS,GENERAL DISORDERS AND ADMINISTRATION SITE CONDITIONS,NA,MILD,N,N,N,N,N,N,N,N,PROBABLE,,RECOVERED/RESOLVED,4,Y,,,,,,,DERMATOLOGIC EVENTS,
CDISCPILOT01,701,01-701-1341,Xanomeline Low Dose,54,51,<65,1,WHITE,1,M,Y,2013-01-05,2013-01-26,2013-01-19,,15,NA,NA,NA,,APPLICATION SITE PRURITUS,APPLICATION SITE ITCHING,NA,APPLICATION SITE PRURITUS,NA,HLT_0317,NA,HLGT_0338,NA,GENERAL DISORDERS AND ADMINISTRATION SITE CONDITIONS,GENERAL DISORDERS AND ADMINISTRATION SITE CONDITIONS,NA,MODERATE,N,N,N,N,N,N,N,N,PROBABLE,,NOT RECOVERED/NOT RESOLVED,1,Y,Y,Y,Y,,,,DERMATOLOGIC EVENTS,Y
CDISCPILOT01,701,01-701-1341,Xanomeline Low Dose,54,51,<65,1,WHITE,1,M,Y,2013-01-05,2013-01-26,2013-01-19,,15,NA,NA,NA,,APPLICATION SITE ERYTHEMA,APPLICATION SITE REDNESS,NA,APPLICATION SITE ERYTHEMA,NA,HLT_0617,NA,HLGT_0152,NA,GENERAL DISORDERS AND ADMINISTRATION SITE CONDITIONS,GENERAL DISORDERS AND ADMINISTRATION SITE CONDITIONS,NA,MODERATE,N,N,N,N,N,N,N,N,PROBABLE,,NOT RECOVERED/NOT RESOLVED,2,Y,,,Y,,,,DERMATOLOGIC EVENTS,
CDISCPILOT01,701,01-701-1341,Xanomeline Low Dose,54,51,<65,1,WHITE,1,M,Y,2013-01-05,2013-01-26,2013-01-26,,22,2013-01-30,26,5,DAY,APPLICATION SITE PRURITUS,APPLICATION SITE ITCHING,NA,APPLICATION SITE PRURITUS,NA,HLT_0317,NA,HLGT_0338,NA,GENERAL DISORDERS AND ADMINISTRATION SITE CONDITIONS,GENERAL DISORDERS AND ADMINISTRATION SITE CONDITIONS,NA,MODERATE,N,N,N,N,N,N,N,N,PROBABLE,,RECOVERED/RESOLVED,3,Y,,,,,,,DERMATOLOGIC EVENTS,
CDISCPILOT01,701,01-701-1341,Xanomeline Low Dose,54,51,<65,1,WHITE,1,M,Y,2013-01-05,2013-01-26,2013-01-26,,22,NA,NA,NA,,APPLICATION SITE ERYTHEMA,APPLICATION SITE REDNESS,NA,APPLICATION SITE ERYTHEMA,NA,HLT_0617,NA,HLGT_0152,NA,GENERAL DISORDERS AND ADMINISTRATION SITE CONDITIONS,GENERAL DISORDERS AND ADMINISTRATION SITE CONDITIONS,NA,MODERATE,N,N,N,N,N,N,N,N,PROBABLE,,NOT RECOVERED/NOT RESOLVED,4,Y,,,,,,,DERMATOLOGIC EVENTS,
CDISCPILOT01,701,01-701-1341,Xanomeline Low Dose,54,51,<65,1,WHITE,1,M,Y,2013-01-05,2013-01-26,2013-01-26,,22,2013-01-30,26,5,DAY,APPLICATION SITE IRRITATION,APPLICATION SITE BURNING,NA,APPLICATION SITE IRRITATION,NA,HLT_0061,NA,HLGT_0346,NA,GENERAL DISORDERS AND ADMINISTRATION SITE CONDITIONS,GENERAL DISORDERS AND ADMINISTRATION SITE CONDITIONS,NA,MODERATE,N,N,N,N,N,N,N,N,PROBABLE,,RECOVERED/RESOLVED,5,Y,,,Y,,,,DERMATOLOGIC EVENTS,
CDISCPILOT01,701,01-701-1360,Xanomeline High Dose,81,67,65-80,2,WHITE,1,M,Y,2013-07-31,2013-08-05,2013-08-02,,3,NA,NA,NA,,APPLICATION SITE ERYTHEMA,APPLICATION SITE ERYTHEMA,NA,APPLICATION SITE ERYTHEMA,NA,HLT_0617,NA,HLGT_0152,NA,GENERAL DISORDERS AND ADMINISTRATION SITE CONDITIONS,GENERAL DISORDERS AND ADMINISTRATION SITE CONDITIONS,NA,MODERATE,N,N,N,N,N,N,N,N,PROBABLE,,NOT RECOVERED/NOT RESOLVED,1,Y,Y,Y,Y,,,,DERMATOLOGIC EVENTS,Y
CDISCPILOT01,701,01-701-1360,Xanomeline High Dose,81,67,65-80,2,WHITE,1,M,Y,2013-07-31,2013-08-05,2013-08-02,,3,NA,NA,NA,,APPLICATION SITE PRURITUS,APPLICATION SITE ITCHING,NA,APPLICATION SITE PRURITUS,NA,HLT_0317,NA,HLGT_0338,NA,GENERAL DISORDERS AND ADMINISTRATION SITE CONDITIONS,GENERAL DISORDERS AND ADMINISTRATION SITE CONDITIONS,NA,MODERATE,N,N,N,N,N,N,N,N,PROBABLE,,NOT RECOVERED/NOT RESOLVED,2,Y,,,Y,,,,DERMATOLOGIC EVENTS,
CDISCPILOT01,701,01-701-1360,Xanomeline High Dose,81,67,65-80,2,WHITE,1,M,Y,2013-07-31,2013-08-05,2013-08-05,,6,NA,NA,NA,,APPLICATION SITE VESICLES,APPLICATION SITE BLISTER,NA,APPLICATION SITE VESICLES,NA,HLT_0180,NA,HLGT_0576,NA,GENERAL DISORDERS AND ADMINISTRATION SITE CONDITIONS,GENERAL DISORDERS AND ADMINISTRATION SITE CONDITIONS,NA,MODERATE,N,N,N,N,N,N,N,N,PROBABLE,,NOT RECOVERED/NOT RESOLVED,3,Y,,,Y,,,,DERMATOLOGIC EVENTS,
CDISCPILOT01,701,01-701-1363,Placebo,0,81,>80,3,BLACK OR AFRICAN AMERICAN,2,F,Y,2013-05-30,2013-11-27,2013-06-14,,16,2013-06-15,17,2,DAY,NAUSEA,NAUSEA,NA,NAUSEA,NA,HLT_0742,NA,HLGT_0326,NA,GASTROINTESTINAL DISORDERS,GASTROINTESTINAL DISORDERS,NA,MILD,N,N,N,N,N,N,N,N,REMOTE,,RECOVERED/RESOLVED,1,Y,Y,Y,Y,,,,,
CDISCPILOT01,701,01-701-1363,Placebo,0,81,>80,3,BLACK OR AFRICAN AMERICAN,2,F,Y,2013-05-30,2013-11-27,NA,,NA,NA,NA,NA,,HEADACHE,HEADACHE,NA,HEADACHE,NA,HLT_0064,NA,HLGT_0344,NA,NERVOUS SYSTEM DISORDERS,NERVOUS SYSTEM DISORDERS,NA,MODERATE,N,N,N,N,N,N,N,N,POSSIBLE,,NOT RECOVERED/NOT RESOLVED,2,N,,,,,,,,
CDISCPILOT01,701,01-701-1363,Placebo,0,81,>80,3,BLACK OR AFRICAN AMERICAN,2,F,Y,2013-05-30,2013-11-27,2013-07-16,,48,NA,NA,NA,,APPLICATION SITE PRURITUS,APPLICATION SITE ITCHING,NA,APPLICATION SITE PRURITUS,NA,HLT_0317,NA,HLGT_0338,NA,GENERAL DISORDERS AND ADMINISTRATION SITE CONDITIONS,GENERAL DISORDERS AND ADMINISTRATION SITE CONDITIONS,NA,MILD,N,N,N,N,N,N,N,N,PROBABLE,,NOT RECOVERED/NOT RESOLVED,3,Y,,Y,Y,,,,DERMATOLOGIC EVENTS,Y
CDISCPILOT01,701,01-701-1363,Placebo,0,81,>80,3,BLACK OR AFRICAN AMERICAN,2,F,Y,2013-05-30,2013-11-27,NA,,NA,NA,NA,NA,,HEADACHE,HEADACHE,NA,HEADACHE,NA,HLT_0064,NA,HLGT_0344,NA,NERVOUS SYSTEM DISORDERS,NERVOUS SYSTEM DISORDERS,NA,MILD,N,N,N,N,N,N,N,N,POSSIBLE,,NOT RECOVERED/NOT RESOLVED,4,N,,,,,,,,
CDISCPILOT01,701,01-701-1363,Placebo,0,81,>80,3,BLACK OR AFRICAN AMERICAN,2,F,Y,2013-05-30,2013-11-27,2013-10-13,,137,2013-10-15,139,3,DAY,BACK PAIN,BACKACHE,NA,BACK PAIN,NA,HLT_0115,NA,HLGT_0508,NA,MUSCULOSKELETAL AND CONNECTIVE TISSUE DISORDERS,MUSCULOSKELETAL AND CONNECTIVE TISSUE DISORDERS,NA,MILD,N,N,N,N,N,N,N,N,NONE,,NOT RECOVERED/NOT RESOLVED,5,Y,,Y,Y,,,,,
CDISCPILOT01,701,01-701-1363,Placebo,0,81,>80,3,BLACK OR AFRICAN AMERICAN,2,F,Y,2013-05-30,2013-11-27,2013-10-13,,137,2013-10-15,139,3,DAY,BACK PAIN,BACKACHE,NA,BACK PAIN,NA,HLT_0115,NA,HLGT_0508,NA,MUSCULOSKELETAL AND CONNECTIVE TISSUE DISORDERS,MUSCULOSKELETAL AND CONNECTIVE TISSUE DISORDERS,NA,MILD,N,N,N,N,N,N,N,N,NONE,,RECOVERED/RESOLVED,6,Y,,,,,,,,
CDISCPILOT01,701,01-701-1383,Xanomeline High Dose,81,72,65-80,2,WHITE,1,F,Y,2013-02-04,2013-08-06,2013-02-07,,4,2013-02-07,4,1,DAY,APPLICATION SITE PRURITUS,APPLICATION SITE ITCHING,NA,APPLICATION SITE PRURITUS,NA,HLT_0317,NA,HLGT_0338,NA,GENERAL DISORDERS AND ADMINISTRATION SITE CONDITIONS,GENERAL DISORDERS AND ADMINISTRATION SITE CONDITIONS,NA,MILD,N,N,N,N,N,N,N,N,PROBABLE,,RECOVERED/RESOLVED,1,Y,Y,Y,Y,,,,DERMATOLOGIC EVENTS,Y
CDISCPILOT01,701,01-701-1383,Xanomeline High Dose,81,72,65-80,2,WHITE,1,F,Y,2013-02-04,2013-08-06,2013-02-07,,4,2013-02-07,4,1,DAY,APPLICATION SITE PAIN,APPLICATION SITE PAIN,NA,APPLICATION SITE PAIN,NA,HLT_0342,NA,HLGT_0085,NA,GENERAL DISORDERS AND ADMINISTRATION SITE CONDITIONS,GENERAL DISORDERS AND ADMINISTRATION SITE CONDITIONS,NA,MILD,N,N,N,N,N,N,N,N,PROBABLE,,RECOVERED/RESOLVED,2,Y,,,Y,,,,DERMATOLOGIC EVENTS,
CDISCPILOT01,701,01-701-1383,Xanomeline High Dose,81,72,65-80,2,WHITE,1,F,Y,2013-02-04,2013-08-06,2013-03-23,,48,2013-03-26,51,4,DAY,APPLICATION SITE ERYTHEMA,APPLICATION SITE ERYTHEMA,NA,APPLICATION SITE ERYTHEMA,NA,HLT_0617,NA,HLGT_0152,NA,GENERAL DISORDERS AND ADMINISTRATION SITE CONDITIONS,GENERAL DISORDERS AND ADMINISTRATION SITE CONDITIONS,NA,MILD,N,N,N,N,N,N,N,N,POSSIBLE,,RECOVERED/RESOLVED,3,Y,,,Y,,,,DERMATOLOGIC EVENTS,
CDISCPILOT01,701,01-701-1383,Xanomeline High Dose,81,72,65-80,2,WHITE,1,F,Y,2013-02-04,2013-08-06,2013-03-23,,48,NA,NA,NA,,APPLICATION SITE PRURITUS,APPLICATION SITE ITCHING,NA,APPLICATION SITE PRURITUS,NA,HLT_0317,NA,HLGT_0338,NA,GENERAL DISORDERS AND ADMINISTRATION SITE CONDITIONS,GENERAL DISORDERS AND ADMINISTRATION SITE CONDITIONS,NA,MILD,N,N,N,N,N,N,N,N,POSSIBLE,,NOT RECOVERED/NOT RESOLVED,4,Y,,,,,,,DERMATOLOGIC EVENTS,
CDISCPILOT01,701,01-701-1383,Xanomeline High Dose,81,72,65-80,2,WHITE,1,F,Y,2013-02-04,2013-08-06,2013-04-12,,68,NA,NA,NA,,APPLICATION SITE ERYTHEMA,APPLICATION SITE ERYTHEMA,NA,APPLICATION SITE ERYTHEMA,NA,HLT_0617,NA,HLGT_0152,NA,GENERAL DISORDERS AND ADMINISTRATION SITE CONDITIONS,GENERAL DISORDERS AND ADMINISTRATION SITE CONDITIONS,NA,MILD,N,N,N,N,N,N,N,N,POSSIBLE,,NOT RECOVERED/NOT RESOLVED,5,Y,,,,,,,DERMATOLOGIC EVENTS,
CDISCPILOT01,701,01-701-1383,Xanomeline High Dose,81,72,65-80,2,WHITE,1,F,Y,2013-02-04,2013-08-06,2013-04-12,,68,NA,NA,NA,,APPLICATION SITE IRRITATION,APPLICATION SITE BURNING,NA,APPLICATION SITE IRRITATION,NA,HLT_0061,NA,HLGT_0346,NA,GENERAL DISORDERS AND ADMINISTRATION SITE CONDITIONS,GENERAL DISORDERS AND ADMINISTRATION SITE CONDITIONS,NA,MILD,N,N,N,N,N,N,N,N,POSSIBLE,,NOT RECOVERED/NOT RESOLVED,6,Y,,,Y,,,,DERMATOLOGIC EVENTS,
CDISCPILOT01,701,01-701-1383,Xanomeline High Dose,81,72,65-80,2,WHITE,1,F,Y,2013-02-04,2013-08-06,2013-03-23,,48,NA,NA,NA,,APPLICATION SITE PRURITUS,APPLICATION SITE ITCHING,NA,APPLICATION SITE PRURITUS,NA,HLT_0317,NA,HLGT_0338,NA,GENERAL DISORDERS AND ADMINISTRATION SITE CONDITIONS,GENERAL DISORDERS AND ADMINISTRATION SITE CONDITIONS,NA,MODERATE,N,N,N,N,N,N,N,N,POSSIBLE,,NOT RECOVERED/NOT RESOLVED,7,Y,,,,,,,DERMATOLOGIC EVENTS,
CDISCPILOT01,701,01-701-1383,Xanomeline High Dose,81,72,65-80,2,WHITE,1,F,Y,2013-02-04,2013-08-06,2013-04-12,,68,NA,NA,NA,,APPLICATION SITE IRRITATION,APPLICATION SITE BURNING,NA,APPLICATION SITE IRRITATION,NA,HLT_0061,NA,HLGT_0346,NA,GENERAL DISORDERS AND ADMINISTRATION SITE CONDITIONS,GENERAL DISORDERS AND ADMINISTRATION SITE CONDITIONS,NA,MODERATE,N,N,N,N,N,N,N,N,POSSIBLE,,NOT RECOVERED/NOT RESOLVED,8,Y,,,,,,,DERMATOLOGIC EVENTS,
CDISCPILOT01,701,01-701-1383,Xanomeline High Dose,81,72,65-80,2,WHITE,1,F,Y,2013-02-04,2013-08-06,2013-05-07,,93,2013-05-24,110,18,DAY,APPLICATION SITE VESICLES,APPLICATION SITE BLISTER,NA,APPLICATION SITE VESICLES,NA,HLT_0180,NA,HLGT_0576,NA,GENERAL DISORDERS AND ADMINISTRATION SITE CONDITIONS,GENERAL DISORDERS AND ADMINISTRATION SITE CONDITIONS,NA,MILD,N,N,N,N,N,N,N,N,POSSIBLE,,RECOVERED/RESOLVED,9,Y,,,Y,,,,DERMATOLOGIC EVENTS,
CDISCPILOT01,701,01-701-1383,Xanomeline High Dose,81,72,65-80,2,WHITE,1,F,Y,2013-02-04,2013-08-06,2013-06-24,,141,2013-06-24,141,1,DAY,CHEST DISCOMFORT,CHEST PRESSURE,NA,CHEST DISCOMFORT,NA,HLT_0593,NA,HLGT_0441,NA,GENERAL DISORDERS AND ADMINISTRATION SITE CONDITIONS,GENERAL DISORDERS AND ADMINISTRATION SITE CONDITIONS,NA,MILD,N,N,N,N,N,N,N,N,NONE,,RECOVERED/RESOLVED,10,Y,,,Y,,,,,
CDISCPILOT01,701,01-701-1383,Xanomeline High Dose,81,72,65-80,2,WHITE,1,F,Y,2013-02-04,2013-08-06,2013-06-24,,141,2013-06-24,141,1,DAY,HEADACHE,FULLNESS HEAD,NA,HEADACHE,NA,HLT_0064,NA,HLGT_0344,NA,NERVOUS SYSTEM DISORDERS,NERVOUS SYSTEM DISORDERS,NA,MILD,N,N,N,N,N,N,N,N,NONE,,RECOVERED/RESOLVED,11,Y,,Y,Y,,,,,
CDISCPILOT01,701,01-701-1383,Xanomeline High Dose,81,72,65-80,2,WHITE,1,F,Y,2013-02-04,2013-08-06,2013-07-17,,164,2013-07-26,173,10,DAY,COUGH,COUGH,NA,COUGH,NA,HLT_0701,NA,HLGT_0280,NA,"RESPIRATORY, THORACIC AND MEDIASTINAL DISORDERS","RESPIRATORY, THORACIC AND MEDIASTINAL DISORDERS",NA,MODERATE,N,N,N,N,N,N,N,N,NONE,,RECOVERED/RESOLVED,12,Y,,Y,Y,,,,,
CDISCPILOT01,701,01-701-1387,Placebo,0,87,>80,3,WHITE,1,F,Y,2014-03-12,2014-03-25,2014-03-18,,7,2014-03-18,7,1,DAY,DIARRHOEA,DIARRHEA,NA,DIARRHOEA,NA,HLT_0148,NA,HLGT_0588,NA,GASTROINTESTINAL DISORDERS,GASTROINTESTINAL DISORDERS,NA,MILD,N,N,N,N,N,N,N,N,REMOTE,,RECOVERED/RESOLVED,1,Y,Y,Y,Y,,,,,
CDISCPILOT01,701,01-701-1387,Placebo,0,87,>80,3,WHITE,1,F,Y,2014-03-12,2014-03-25,2014-03-18,,7,2014-03-18,7,1,DAY,HYPERHIDROSIS,SWEATING,NA,HYPERHIDROSIS,NA,HLT_0587,NA,HLGT_0005,NA,SKIN AND SUBCUTANEOUS TISSUE DISORDERS,SKIN AND SUBCUTANEOUS TISSUE DISORDERS,NA,MILD,N,N,N,N,N,N,N,N,REMOTE,,RECOVERED/RESOLVED,2,Y,,Y,Y,,,,,
CDISCPILOT01,701,01-701-1392,Placebo,0,78,65-80,2,WHITE,1,M,Y,2012-10-28,2013-04-28,2013-03-16,,140,2013-03-21,145,6,DAY,UPPER RESPIRATORY TRACT INFECTION,UPPER RESPIRATORY INFECTION,NA,UPPER RESPIRATORY TRACT INFECTION,NA,HLT_0520,NA,HLGT_0489,NA,INFECTIONS AND INFESTATIONS,INFECTIONS AND INFESTATIONS,NA,MILD,N,N,N,N,N,N,N,N,REMOTE,,NOT RECOVERED/NOT RESOLVED,1,Y,Y,Y,Y,,,,,
CDISCPILOT01,701,01-701-1392,Placebo,0,78,65-80,2,WHITE,1,M,Y,2012-10-28,2013-04-28,2013-03-16,,140,2013-03-21,145,6,DAY,UPPER RESPIRATORY TRACT INFECTION,UPPER RESPIRATORY INFECTION,NA,UPPER RESPIRATORY TRACT INFECTION,NA,HLT_0520,NA,HLGT_0489,NA,INFECTIONS AND INFESTATIONS,INFECTIONS AND INFESTATIONS,NA,MILD,N,N,N,N,N,N,N,N,REMOTE,,RECOVERED/RESOLVED,2,Y,,,,,,,,
CDISCPILOT01,701,01-701-1415,Placebo,0,85,>80,3,WHITE,1,M,Y,2013-09-23,2014-03-24,2013-10-21,,29,2013-11-04,43,15,DAY,UPPER RESPIRATORY TRACT INFECTION,UPPER RESPIRATORY INFECTION,NA,UPPER RESPIRATORY TRACT INFECTION,NA,HLT_0520,NA,HLGT_0489,NA,INFECTIONS AND INFESTATIONS,INFECTIONS AND INFESTATIONS,NA,MILD,N,N,N,N,N,N,N,N,NONE,,NOT RECOVERED/NOT RESOLVED,1,Y,Y,Y,Y,,,,,
CDISCPILOT01,701,01-701-1415,Placebo,0,85,>80,3,WHITE,1,M,Y,2013-09-23,2014-03-24,2013-10-21,,29,2013-11-04,43,15,DAY,UPPER RESPIRATORY TRACT INFECTION,UPPER RESPIRATORY INFECTION,NA,UPPER RESPIRATORY TRACT INFECTION,NA,HLT_0520,NA,HLGT_0489,NA,INFECTIONS AND INFESTATIONS,INFECTIONS AND INFESTATIONS,NA,MILD,N,N,N,N,N,N,N,N,NONE,,RECOVERED/RESOLVED,2,Y,,,,,,,,
CDISCPILOT01,701,01-701-1415,Placebo,0,85,>80,3,WHITE,1,M,Y,2013-09-23,2014-03-24,2013-12-02,,71,NA,NA,NA,,MICTURITION URGENCY,URINARY URGENCY,NA,MICTURITION URGENCY,NA,HLT_0294,NA,HLGT_0483,NA,RENAL AND URINARY DISORDERS,RENAL AND URINARY DISORDERS,NA,MILD,N,N,N,N,N,N,N,N,NONE,,NOT RECOVERED/NOT RESOLVED,3,Y,,Y,Y,,,,,
CDISCPILOT01,701,01-701-1415,Placebo,0,85,>80,3,WHITE,1,M,Y,2013-09-23,2014-03-24,2014-01-21,,121,2014-02-10,141,21,DAY,UPPER RESPIRATORY TRACT INFECTION,UPPER RESPIRATORY INFECTION,NA,UPPER RESPIRATORY TRACT INFECTION,NA,HLT_0520,NA,HLGT_0489,NA,INFECTIONS AND INFESTATIONS,INFECTIONS AND INFESTATIONS,NA,MILD,N,N,N,N,N,N,N,N,REMOTE,,NOT RECOVERED/NOT RESOLVED,4,Y,,,,,,,,
CDISCPILOT01,701,01-701-1415,Placebo,0,85,>80,3,WHITE,1,M,Y,2013-09-23,2014-03-24,2014-01-21,,121,2014-02-10,141,21,DAY,UPPER RESPIRATORY TRACT INFECTION,UPPER RESPIRATORY INFECTION,NA,UPPER RESPIRATORY TRACT INFECTION,NA,HLT_0520,NA,HLGT_0489,NA,INFECTIONS AND INFESTATIONS,INFECTIONS AND INFESTATIONS,NA,MILD,N,N,N,N,N,N,N,N,REMOTE,,RECOVERED/RESOLVED,5,Y,,,,,,,,
CDISCPILOT01,701,01-701-1415,Placebo,0,85,>80,3,WHITE,1,M,Y,2013-09-23,2014-03-24,2014-03-09,,168,2014-03-09,168,1,DAY,DIARRHOEA,DIARRHEA,NA,DIARRHOEA,NA,HLT_0148,NA,HLGT_0588,NA,GASTROINTESTINAL DISORDERS,GASTROINTESTINAL DISORDERS,NA,MILD,N,N,N,N,N,N,N,N,NONE,,RECOVERED/RESOLVED,6,Y,,Y,Y,,,,,
CDISCPILOT01,701,01-701-1442,Xanomeline Low Dose,54,57,<65,1,BLACK OR AFRICAN AMERICAN,2,F,Y,2013-10-26,2014-04-26,2014-01-10,,77,NA,NA,NA,,APPLICATION SITE PRURITUS,APPLICATION SITE ITCHING,NA,APPLICATION SITE PRURITUS,NA,HLT_0317,NA,HLGT_0338,NA,GENERAL DISORDERS AND ADMINISTRATION SITE CONDITIONS,GENERAL DISORDERS AND ADMINISTRATION SITE CONDITIONS,NA,MILD,N,N,N,N,N,N,N,N,PROBABLE,,NOT RECOVERED/NOT RESOLVED,1,Y,Y,Y,Y,,,,DERMATOLOGIC EVENTS,Y
CDISCPILOT01,701,01-701-1444,Xanomeline High Dose,81,63,<65,1,WHITE,1,M,Y,2013-01-05,2013-02-12,2013-01-19,,15,NA,NA,NA,,APPLICATION SITE ERYTHEMA,APPLICATION SITE ERYTHEMA,NA,APPLICATION SITE ERYTHEMA,NA,HLT_0617,NA,HLGT_0152,NA,GENERAL DISORDERS AND ADMINISTRATION SITE CONDITIONS,GENERAL DISORDERS AND ADMINISTRATION SITE CONDITIONS,NA,MILD,N,N,N,N,N,N,N,N,POSSIBLE,,NOT RECOVERED/NOT RESOLVED,1,Y,Y,Y,Y,,,,DERMATOLOGIC EVENTS,Y
CDISCPILOT01,701,01-701-1444,Xanomeline High Dose,81,63,<65,1,WHITE,1,M,Y,2013-01-05,2013-02-12,2013-01-19,,15,NA,NA,NA,,APPLICATION SITE PRURITUS,APPLICATION SITE ITCHING,NA,APPLICATION SITE PRURITUS,NA,HLT_0317,NA,HLGT_0338,NA,GENERAL DISORDERS AND ADMINISTRATION SITE CONDITIONS,GENERAL DISORDERS AND ADMINISTRATION SITE CONDITIONS,NA,MILD,N,N,N,N,N,N,N,N,PROBABLE,,NOT RECOVERED/NOT RESOLVED,2,Y,,,Y,,,,DERMATOLOGIC EVENTS,
CDISCPILOT01,701,01-701-1444,Xanomeline High Dose,81,63,<65,1,WHITE,1,M,Y,2013-01-05,2013-02-12,2013-01-19,,15,NA,NA,NA,,SALIVARY HYPERSECRETION,HYPERSALIVATION,NA,SALIVARY HYPERSECRETION,NA,HLT_0374,NA,HLGT_0488,NA,GASTROINTESTINAL DISORDERS,GASTROINTESTINAL DISORDERS,NA,MILD,N,N,N,N,N,N,N,N,POSSIBLE,,NOT RECOVERED/NOT RESOLVED,3,Y,,Y,Y,,,,,
CDISCPILOT01,701,01-701-1444,Xanomeline High Dose,81,63,<65,1,WHITE,1,M,Y,2013-01-05,2013-02-12,2013-01-19,,15,NA,NA,NA,,APPLICATION SITE ERYTHEMA,APPLICATION SITE ERYTHEMA,NA,APPLICATION SITE ERYTHEMA,NA,HLT_0617,NA,HLGT_0152,NA,GENERAL DISORDERS AND ADMINISTRATION SITE CONDITIONS,GENERAL DISORDERS AND ADMINISTRATION SITE CONDITIONS,NA,MODERATE,N,N,N,N,N,N,N,N,POSSIBLE,,NOT RECOVERED/NOT RESOLVED,4,Y,,,,,,,DERMATOLOGIC EVENTS,
CDISCPILOT01,701,01-701-1444,Xanomeline High Dose,81,63,<65,1,WHITE,1,M,Y,2013-01-05,2013-02-12,2013-01-19,,15,NA,NA,NA,,APPLICATION SITE PRURITUS,APPLICATION SITE ITCHING,NA,APPLICATION SITE PRURITUS,NA,HLT_0317,NA,HLGT_0338,NA,GENERAL DISORDERS AND ADMINISTRATION SITE CONDITIONS,GENERAL DISORDERS AND ADMINISTRATION SITE CONDITIONS,NA,MODERATE,N,N,N,N,N,N,N,N,PROBABLE,,NOT RECOVERED/NOT RESOLVED,5,Y,,,,,,,DERMATOLOGIC EVENTS,
CDISCPILOT01,701,01-701-1444,Xanomeline High Dose,81,63,<65,1,WHITE,1,M,Y,2013-01-05,2013-02-12,2013-02-04,,31,NA,NA,NA,,APPLICATION SITE IRRITATION,APPLICATION SITE BURNING,NA,APPLICATION SITE IRRITATION,NA,HLT_0061,NA,HLGT_0346,NA,GENERAL DISORDERS AND ADMINISTRATION SITE CONDITIONS,GENERAL DISORDERS AND ADMINISTRATION SITE CONDITIONS,NA,MODERATE,N,N,N,N,N,N,N,N,PROBABLE,,NOT RECOVERED/NOT RESOLVED,6,Y,,,Y,,,,DERMATOLOGIC EVENTS,
CDISCPILOT01,701,01-701-1444,Xanomeline High Dose,81,63,<65,1,WHITE,1,M,Y,2013-01-05,2013-02-12,2013-02-04,,31,NA,NA,NA,,APPLICATION SITE VESICLES,APPLICATION SITE BLISTER,NA,APPLICATION SITE VESICLES,NA,HLT_0180,NA,HLGT_0576,NA,GENERAL DISORDERS AND ADMINISTRATION SITE CONDITIONS,GENERAL DISORDERS AND ADMINISTRATION SITE CONDITIONS,NA,MODERATE,N,N,N,N,N,N,N,N,PROBABLE,,NOT RECOVERED/NOT RESOLVED,7,Y,,,Y,,,,DERMATOLOGIC EVENTS,
CDISCPILOT01,701,01-701-1444,Xanomeline High Dose,81,63,<65,1,WHITE,1,M,Y,2013-01-05,2013-02-12,2013-02-08,,35,2013-02-08,35,1,DAY,PARAESTHESIA,TINGLING,NA,PARAESTHESIA,NA,HLT_0481,NA,HLGT_0534,NA,NERVOUS SYSTEM DISORDERS,NERVOUS SYSTEM DISORDERS,NA,MILD,N,N,N,N,N,N,N,N,NONE,,RECOVERED/RESOLVED,8,Y,,Y,Y,,,,,
CDISCPILOT01,702,01-702-1082,Xanomeline Low Dose,54,84,>80,3,WHITE,1,F,Y,2013-07-26,2013-10-13,2013-07-07,,-19,2013-07-26,1,20,DAY,WHITE BLOOD CELL COUNT INCREASED,WBC INCREASED,NA,WHITE BLOOD CELL COUNT INCREASED,NA,HLT_0417,NA,HLGT_0465,NA,INVESTIGATIONS,INVESTIGATIONS,NA,MILD,N,N,N,N,N,N,N,N,NONE,,NOT RECOVERED/NOT RESOLVED,1,N,,,,,,,,
CDISCPILOT01,702,01-702-1082,Xanomeline Low Dose,54,84,>80,3,WHITE,1,F,Y,2013-07-26,2013-10-13,2013-07-07,,-19,2013-07-26,1,20,DAY,NEUTROPHIL COUNT INCREASED,NEUTROPHIL COUNT INCREASED,NA,NEUTROPHIL COUNT INCREASED,NA,HLT_0326,NA,HLGT_0625,NA,INVESTIGATIONS,INVESTIGATIONS,NA,MILD,N,N,N,N,N,N,N,N,NONE,,NOT RECOVERED/NOT RESOLVED,2,N,,,,,,,,
CDISCPILOT01,702,01-702-1082,Xanomeline Low Dose,54,84,>80,3,WHITE,1,F,Y,2013-07-26,2013-10-13,2013-07-07,,-19,2013-07-24,-2,18,DAY,URINE ANALYSIS ABNORMAL,URINE ANALYSIS ABNORMAL,NA,URINE ANALYSIS ABNORMAL,NA,HLT_0783,NA,HLGT_0295,NA,INVESTIGATIONS,INVESTIGATIONS,NA,MILD,N,N,N,N,N,N,N,N,NONE,,NOT RECOVERED/NOT RESOLVED,3,N,,,,,,,,
CDISCPILOT01,702,01-702-1082,Xanomeline Low Dose,54,84,>80,3,WHITE,1,F,Y,2013-07-26,2013-10-13,2013-07-07,,-19,2013-07-24,-2,18,DAY,URINE ANALYSIS ABNORMAL,URINE ANALYSIS ABNORMAL,NA,URINE ANALYSIS ABNORMAL,NA,HLT_0783,NA,HLGT_0295,NA,INVESTIGATIONS,INVESTIGATIONS,NA,MILD,N,N,N,N,N,N,N,N,NONE,,RECOVERED/RESOLVED,4,N,,,,,,,,
CDISCPILOT01,702,01-702-1082,Xanomeline Low Dose,54,84,>80,3,WHITE,1,F,Y,2013-07-26,2013-10-13,2013-07-07,,-19,2013-07-26,1,20,DAY,WHITE BLOOD CELL COUNT INCREASED,WBC INCREASED,NA,WHITE BLOOD CELL COUNT INCREASED,NA,HLT_0417,NA,HLGT_0465,NA,INVESTIGATIONS,INVESTIGATIONS,NA,MILD,N,N,N,N,N,N,N,N,NONE,,RECOVERED/RESOLVED,5,N,,,,,,,,
CDISCPILOT01,702,01-702-1082,Xanomeline Low Dose,54,84,>80,3,WHITE,1,F,Y,2013-07-26,2013-10-13,2013-07-07,,-19,2013-07-26,1,20,DAY,NEUTROPHIL COUNT INCREASED,NEUTROPHIL COUNT INCREASED,NA,NEUTROPHIL COUNT INCREASED,NA,HLT_0326,NA,HLGT_0625,NA,INVESTIGATIONS,INVESTIGATIONS,NA,MILD,N,N,N,N,N,N,N,N,NONE,,RECOVERED/RESOLVED,6,N,,,,,,,,
CDISCPILOT01,702,01-702-1082,Xanomeline Low Dose,54,84,>80,3,WHITE,1,F,Y,2013-07-26,2013-10-13,2013-09-02,,39,2013-09-06,43,5,DAY,RECTAL HAEMORRHAGE,RECTAL BLEEDING,NA,RECTAL HAEMORRHAGE,NA,HLT_0353,NA,HLGT_0755,NA,GASTROINTESTINAL DISORDERS,GASTROINTESTINAL DISORDERS,NA,MILD,N,N,N,N,N,N,N,N,NONE,,NOT RECOVERED/NOT RESOLVED,7,Y,Y,Y,Y,,,,,
CDISCPILOT01,702,01-702-1082,Xanomeline Low Dose,54,84,>80,3,WHITE,1,F,Y,2013-07-26,2013-10-13,2013-09-02,,39,2013-09-06,43,5,DAY,RECTAL HAEMORRHAGE,RECTAL BLEEDING,NA,RECTAL HAEMORRHAGE,NA,HLT_0353,NA,HLGT_0755,NA,GASTROINTESTINAL DISORDERS,GASTROINTESTINAL DISORDERS,NA,MILD,N,N,N,N,N,N,N,N,NONE,,RECOVERED/RESOLVED,8,Y,,,,,,,,
CDISCPILOT01,702,01-702-1082,Xanomeline Low Dose,54,84,>80,3,WHITE,1,F,Y,2013-07-26,2013-10-13,2013-09-09,,46,2013-09-24,61,16,DAY,APPLICATION SITE IRRITATION,APPLICATION SITE IRRITATION,NA,APPLICATION SITE IRRITATION,NA,HLT_0061,NA,HLGT_0346,NA,GENERAL DISORDERS AND ADMINISTRATION SITE CONDITIONS,GENERAL DISORDERS AND ADMINISTRATION SITE CONDITIONS,NA,MILD,N,N,N,N,N,N,N,N,PROBABLE,,RECOVERED/RESOLVED,9,Y,,Y,Y,,,,DERMATOLOGIC EVENTS,Y
CDISCPILOT01,702,01-702-1082,Xanomeline Low Dose,54,84,>80,3,WHITE,1,F,Y,2013-07-26,2013-10-13,2013-10-12,,79,2013-10-31,98,20,DAY,SKIN IRRITATION,SKIN IRRITATION,NA,SKIN IRRITATION,NA,HLT_0583,NA,HLGT_0384,NA,SKIN AND SUBCUTANEOUS TISSUE DISORDERS,SKIN AND SUBCUTANEOUS TISSUE DISORDERS,NA,MODERATE,N,N,N,N,N,N,N,N,PROBABLE,,RECOVERED/RESOLVED,10,Y,,Y,Y,,,,DERMATOLOGIC EVENTS,
CDISCPILOT01,703,01-703-1042,Placebo,0,64,<65,1,WHITE,1,M,Y,2013-03-02,2013-08-31,2013-03-04,,3,2013-03-05,4,2,DAY,DIARRHOEA,DIARRHEA,NA,DIARRHOEA,NA,HLT_0148,NA,HLGT_0588,NA,GASTROINTESTINAL DISORDERS,GASTROINTESTINAL DISORDERS,NA,MILD,N,N,N,N,N,N,N,N,POSSIBLE,,RECOVERED/RESOLVED,1,Y,Y,Y,Y,,,,,
CDISCPILOT01,703,01-703-1042,Placebo,0,64,<65,1,WHITE,1,M,Y,2013-03-02,2013-08-31,2013-03-05,,4,2013-03-06,5,2,DAY,INSOMNIA,INSOMNIA,NA,INSOMNIA,NA,HLT_0297,NA,HLGT_0469,NA,PSYCHIATRIC DISORDERS,PSYCHIATRIC DISORDERS,NA,MILD,N,N,N,N,N,N,N,N,REMOTE,,RECOVERED/RESOLVED,2,Y,,Y,Y,,,,,
CDISCPILOT01,703,01-703-1076,Xanomeline High Dose,81,69,65-80,2,WHITE,1,M,Y,2013-10-25,2013-12-24,2013-11-16,,23,2013-11-16,23,1,DAY,BIOPSY PROSTATE,BIOPSY OF PROSTATE,NA,BIOPSY PROSTATE,NA,HLT_0553,NA,HLGT_0725,NA,INVESTIGATIONS,INVESTIGATIONS,NA,MODERATE,N,N,N,N,N,N,N,N,NONE,,RECOVERED/RESOLVED,1,Y,Y,Y,Y,,,,,
CDISCPILOT01,703,01-703-1076,Xanomeline High Dose,81,69,65-80,2,WHITE,1,M,Y,2013-10-25,2013-12-24,2013-11-20,,27,NA,NA,NA,,BENIGN PROSTATIC HYPERPLASIA,BENIGN PROSTATIC HYPERTROPHY,NA,BENIGN PROSTATIC HYPERPLASIA,NA,HLT_0215,NA,HLGT_0568,NA,REPRODUCTIVE SYSTEM AND BREAST DISORDERS,REPRODUCTIVE SYSTEM AND BREAST DISORDERS,NA,MODERATE,N,N,N,N,N,N,N,N,NONE,,NOT RECOVERED/NOT RESOLVED,2,Y,,Y,Y,,,,,
CDISCPILOT01,703,01-703-1076,Xanomeline High Dose,81,69,65-80,2,WHITE,1,M,Y,2013-10-25,2013-12-24,NA,,NA,NA,NA,NA,,HYPERCHOLESTEROLAEMIA,HYPERCHOLESTEROLEMIA,NA,HYPERCHOLESTEROLAEMIA,NA,HLT_0025,NA,HLGT_0703,NA,METABOLISM AND NUTRITION DISORDERS,METABOLISM AND NUTRITION DISORDERS,NA,MODERATE,N,N,N,N,N,N,N,N,NONE,,NOT RECOVERED/NOT RESOLVED,3,N,,,,,,,,
CDISCPILOT01,703,01-703-1076,Xanomeline High Dose,81,69,65-80,2,WHITE,1,M,Y,2013-10-25,2013-12-24,2013-11-23,,30,NA,NA,NA,,APPLICATION SITE PRURITUS,APPLICATION SITE ITCHING,NA,APPLICATION SITE PRURITUS,NA,HLT_0317,NA,HLGT_0338,NA,GENERAL DISORDERS AND ADMINISTRATION SITE CONDITIONS,GENERAL DISORDERS AND ADMINISTRATION SITE CONDITIONS,NA,MILD,N,N,N,N,N,N,N,N,PROBABLE,,NOT RECOVERED/NOT RESOLVED,4,Y,,Y,Y,,,,DERMATOLOGIC EVENTS,Y
CDISCPILOT01,703,01-703-1076,Xanomeline High Dose,81,69,65-80,2,WHITE,1,M,Y,2013-10-25,2013-12-24,2013-11-23,,30,NA,NA,NA,,APPLICATION SITE DERMATITIS,APPLICATION SITE RASH,NA,APPLICATION SITE DERMATITIS,NA,HLT_0343,NA,HLGT_0241,NA,GENERAL DISORDERS AND ADMINISTRATION SITE CONDITIONS,GENERAL DISORDERS AND ADMINISTRATION SITE CONDITIONS,NA,MILD,N,N,N,N,N,N,N,N,PROBABLE,,NOT RECOVERED/NOT RESOLVED,5,Y,,,Y,,,,DERMATOLOGIC EVENTS,
CDISCPILOT01,703,01-703-1076,Xanomeline High Dose,81,69,65-80,2,WHITE,1,M,Y,2013-10-25,2013-12-24,2013-11-25,,32,NA,NA,NA,,HYPERHIDROSIS,SWEATING,NA,HYPERHIDROSIS,NA,HLT_0587,NA,HLGT_0005,NA,SKIN AND SUBCUTANEOUS TISSUE DISORDERS,SKIN AND SUBCUTANEOUS TISSUE DISORDERS,NA,MILD,N,N,N,N,N,N,N,N,POSSIBLE,,NOT RECOVERED/NOT RESOLVED,6,Y,,Y,Y,,,,,
CDISCPILOT01,703,01-703-1076,Xanomeline High Dose,81,69,65-80,2,WHITE,1,M,Y,2013-10-25,2013-12-24,2013-11-23,,30,NA,NA,NA,,APPLICATION SITE PRURITUS,APPLICATION SITE ITCHING,NA,APPLICATION SITE PRURITUS,NA,HLT_0317,NA,HLGT_0338,NA,GENERAL DISORDERS AND ADMINISTRATION SITE CONDITIONS,GENERAL DISORDERS AND ADMINISTRATION SITE CONDITIONS,NA,MODERATE,N,N,N,N,N,N,N,N,PROBABLE,,NOT RECOVERED/NOT RESOLVED,7,Y,,,,,,,DERMATOLOGIC EVENTS,
CDISCPILOT01,703,01-703-1086,Xanomeline Low Dose,54,71,65-80,2,WHITE,1,M,Y,2012-09-02,2012-12-04,2012-09-13,,12,2013-01-02,123,112,DAY,APPLICATION SITE IRRITATION,APPLICATION SITE IRRITATION,NA,APPLICATION SITE IRRITATION,NA,HLT_0061,NA,HLGT_0346,NA,GENERAL DISORDERS AND ADMINISTRATION SITE CONDITIONS,GENERAL DISORDERS AND ADMINISTRATION SITE CONDITIONS,NA,MILD,N,N,N,N,N,N,N,N,PROBABLE,,NOT RECOVERED/NOT RESOLVED,1,Y,Y,Y,Y,,,,DERMATOLOGIC EVENTS,Y
CDISCPILOT01,703,01-703-1086,Xanomeline Low Dose,54,71,65-80,2,WHITE,1,M,Y,2012-09-02,2012-12-04,2012-09-13,,12,2013-01-02,123,112,DAY,APPLICATION SITE IRRITATION,APPLICATION SITE IRRITATION,NA,APPLICATION SITE IRRITATION,NA,HLT_0061,NA,HLGT_0346,NA,GENERAL DISORDERS AND ADMINISTRATION SITE CONDITIONS,GENERAL DISORDERS AND ADMINISTRATION SITE CONDITIONS,NA,MODERATE,N,N,N,N,N,N,N,N,PROBABLE,,NOT RECOVERED/NOT RESOLVED,2,Y,,,,,,,DERMATOLOGIC EVENTS,
CDISCPILOT01,703,01-703-1086,Xanomeline Low Dose,54,71,65-80,2,WHITE,1,M,Y,2012-09-02,2012-12-04,2012-09-13,,12,2013-01-02,123,112,DAY,APPLICATION SITE IRRITATION,APPLICATION SITE IRRITATION,NA,APPLICATION SITE IRRITATION,NA,HLT_0061,NA,HLGT_0346,NA,GENERAL DISORDERS AND ADMINISTRATION SITE CONDITIONS,GENERAL DISORDERS AND ADMINISTRATION SITE CONDITIONS,NA,SEVERE,N,N,N,N,N,N,N,N,PROBABLE,,NOT RECOVERED/NOT RESOLVED,3,Y,,,,,,,DERMATOLOGIC EVENTS,
CDISCPILOT01,703,01-703-1086,Xanomeline Low Dose,54,71,65-80,2,WHITE,1,M,Y,2012-09-02,2012-12-04,2012-10-09,,38,2012-10-15,44,7,DAY,CHILLS,CHILLS,NA,CHILLS,NA,HLT_0586,NA,HLGT_0161,NA,GENERAL DISORDERS AND ADMINISTRATION SITE CONDITIONS,GENERAL DISORDERS AND ADMINISTRATION SITE CONDITIONS,NA,MILD,N,N,N,N,N,N,N,N,POSSIBLE,,NOT RECOVERED/NOT RESOLVED,4,Y,,,Y,,,,,
CDISCPILOT01,703,01-703-1086,Xanomeline Low Dose,54,71,65-80,2,WHITE,1,M,Y,2012-09-02,2012-12-04,2012-10-09,,38,2012-10-15,44,7,DAY,CHILLS,CHILLS,NA,CHILLS,NA,HLT_0586,NA,HLGT_0161,NA,GENERAL DISORDERS AND ADMINISTRATION SITE CONDITIONS,GENERAL DISORDERS AND ADMINISTRATION SITE CONDITIONS,NA,MILD,N,N,N,N,N,N,N,N,POSSIBLE,,RECOVERED/RESOLVED,5,Y,,,,,,,,
CDISCPILOT01,703,01-703-1086,Xanomeline Low Dose,54,71,65-80,2,WHITE,1,M,Y,2012-09-02,2012-12-04,2012-09-13,,12,2013-01-02,123,112,DAY,APPLICATION SITE IRRITATION,APPLICATION SITE IRRITATION,NA,APPLICATION SITE IRRITATION,NA,HLT_0061,NA,HLGT_0346,NA,GENERAL DISORDERS AND ADMINISTRATION SITE CONDITIONS,GENERAL DISORDERS AND ADMINISTRATION SITE CONDITIONS,NA,MILD,N,N,N,N,N,N,N,N,PROBABLE,,RECOVERED/RESOLVED,6,Y,,,,,,,DERMATOLOGIC EVENTS,
CDISCPILOT01,703,01-703-1100,Placebo,0,84,>80,3,WHITE,1,F,Y,2013-03-13,2013-09-14,2013-04-05,,24,2013-04-16,35,12,DAY,APPLICATION SITE IRRITATION,APPLICATION SITE IRRITATION,NA,APPLICATION SITE IRRITATION,NA,HLT_0061,NA,HLGT_0346,NA,GENERAL DISORDERS AND ADMINISTRATION SITE CONDITIONS,GENERAL DISORDERS AND ADMINISTRATION SITE CONDITIONS,NA,MODERATE,N,N,N,N,N,N,N,N,PROBABLE,,NOT RECOVERED/NOT RESOLVED,1,Y,Y,Y,Y,,,,DERMATOLOGIC EVENTS,Y
CDISCPILOT01,703,01-703-1100,Placebo,0,84,>80,3,WHITE,1,F,Y,2013-03-13,2013-09-14,2013-04-05,,24,2013-04-16,35,12,DAY,APPLICATION SITE IRRITATION,APPLICATION SITE IRRITATION,NA,APPLICATION SITE IRRITATION,NA,HLT_0061,NA,HLGT_0346,NA,GENERAL DISORDERS AND ADMINISTRATION SITE CONDITIONS,GENERAL DISORDERS AND ADMINISTRATION SITE CONDITIONS,NA,MILD,N,N,N,N,N,N,N,N,PROBABLE,,NOT RECOVERED/NOT RESOLVED,2,Y,,,,,,,DERMATOLOGIC EVENTS,
CDISCPILOT01,703,01-703-1100,Placebo,0,84,>80,3,WHITE,1,F,Y,2013-03-13,2013-09-14,2013-04-05,,24,2013-04-16,35,12,DAY,APPLICATION SITE IRRITATION,APPLICATION SITE IRRITATION,NA,APPLICATION SITE IRRITATION,NA,HLT_0061,NA,HLGT_0346,NA,GENERAL DISORDERS AND ADMINISTRATION SITE CONDITIONS,GENERAL DISORDERS AND ADMINISTRATION SITE CONDITIONS,NA,MILD,N,N,N,N,N,N,N,N,PROBABLE,,RECOVERED/RESOLVED,3,Y,,,,,,,DERMATOLOGIC EVENTS,
CDISCPILOT01,703,01-703-1100,Placebo,0,84,>80,3,WHITE,1,F,Y,2013-03-13,2013-09-14,2013-04-25,,44,2013-04-25,44,1,DAY,CATARACT OPERATION,CATARACT EXTRACTION,NA,CATARACT OPERATION,NA,HLT_0432,NA,HLGT_0058,NA,SURGICAL AND MEDICAL PROCEDURES,SURGICAL AND MEDICAL PROCEDURES,NA,MODERATE,N,N,N,N,N,N,N,N,NONE,,RECOVERED/RESOLVED,4,Y,,Y,Y,,,,,
CDISCPILOT01,703,01-703-1100,Placebo,0,84,>80,3,WHITE,1,F,Y,2013-03-13,2013-09-14,2013-05-27,,76,2013-06-03,83,8,DAY,UPPER RESPIRATORY TRACT INFECTION,UPPER RESPIRATORY INFECTION,NA,UPPER RESPIRATORY TRACT INFECTION,NA,HLT_0520,NA,HLGT_0489,NA,INFECTIONS AND INFESTATIONS,INFECTIONS AND INFESTATIONS,NA,MODERATE,N,N,N,N,N,N,N,N,REMOTE,,RECOVERED/RESOLVED,5,Y,,Y,Y,,,,,
CDISCPILOT01,703,01-703-1100,Placebo,0,84,>80,3,WHITE,1,F,Y,2013-03-13,2013-09-14,2013-02-28,,-13,2013-09-14,186,199,DAY,OEDEMA PERIPHERAL,LEG EDEMA,NA,OEDEMA PERIPHERAL,NA,HLT_0661,NA,HLGT_0137,NA,GENERAL DISORDERS AND ADMINISTRATION SITE CONDITIONS,GENERAL DISORDERS AND ADMINISTRATION SITE CONDITIONS,NA,MODERATE,N,N,N,N,N,N,N,N,REMOTE,,NOT RECOVERED/NOT RESOLVED,6,N,,,,,,,,
CDISCPILOT01,703,01-703-1100,Placebo,0,84,>80,3,WHITE,1,F,Y,2013-03-13,2013-09-14,2013-07-17,,127,2013-09-14,186,60,DAY,OEDEMA PERIPHERAL,LEG EDEMA,NA,OEDEMA PERIPHERAL,NA,HLT_0661,NA,HLGT_0137,NA,GENERAL DISORDERS AND ADMINISTRATION SITE CONDITIONS,GENERAL DISORDERS AND ADMINISTRATION SITE CONDITIONS,NA,MILD,N,N,N,N,N,N,N,N,REMOTE,,NOT RECOVERED/NOT RESOLVED,7,Y,,,Y,,,,,
CDISCPILOT01,703,01-703-1100,Placebo,0,84,>80,3,WHITE,1,F,Y,2013-03-13,2013-09-14,2013-02-28,,-13,2013-09-14,186,199,DAY,OEDEMA PERIPHERAL,LEG EDEMA,NA,OEDEMA PERIPHERAL,NA,HLT_0661,NA,HLGT_0137,NA,GENERAL DISORDERS AND ADMINISTRATION SITE CONDITIONS,GENERAL DISORDERS AND ADMINISTRATION SITE CONDITIONS,NA,MODERATE,N,N,N,N,N,N,N,N,REMOTE,,RECOVERED/RESOLVED,8,N,,,,,,,,
CDISCPILOT01,703,01-703-1100,Placebo,0,84,>80,3,WHITE,1,F,Y,2013-03-13,2013-09-14,2013-07-17,,127,2013-09-14,186,60,DAY,OEDEMA PERIPHERAL,LEG EDEMA,NA,OEDEMA PERIPHERAL,NA,HLT_0661,NA,HLGT_0137,NA,GENERAL DISORDERS AND ADMINISTRATION SITE CONDITIONS,GENERAL DISORDERS AND ADMINISTRATION SITE CONDITIONS,NA,MILD,N,N,N,N,N,N,N,N,REMOTE,,RECOVERED/RESOLVED,9,Y,,,,,,,,
CDISCPILOT01,703,01-703-1119,Xanomeline Low Dose,54,81,>80,3,WHITE,1,F,Y,2013-02-20,2013-06-13,2013-03-16,,25,NA,NA,NA,,APPLICATION SITE IRRITATION,APPLICATION SITE IRRITATION,NA,APPLICATION SITE IRRITATION,NA,HLT_0061,NA,HLGT_0346,NA,GENERAL DISORDERS AND ADMINISTRATION SITE CONDITIONS,GENERAL DISORDERS AND ADMINISTRATION SITE CONDITIONS,NA,MODERATE,N,N,N,N,N,N,N,N,PROBABLE,,NOT RECOVERED/NOT RESOLVED,1,Y,Y,Y,Y,,,,DERMATOLOGIC EVENTS,Y
CDISCPILOT01,703,01-703-1119,Xanomeline Low Dose,54,81,>80,3,WHITE,1,F,Y,2013-02-20,2013-06-13,2013-03-16,,25,NA,NA,NA,,APPLICATION SITE IRRITATION,APPLICATION SITE IRRITATION,NA,APPLICATION SITE IRRITATION,NA,HLT_0061,NA,HLGT_0346,NA,GENERAL DISORDERS AND ADMINISTRATION SITE CONDITIONS,GENERAL DISORDERS AND ADMINISTRATION SITE CONDITIONS,NA,SEVERE,N,N,N,N,N,N,N,N,PROBABLE,,NOT RECOVERED/NOT RESOLVED,2,Y,,,,,,,DERMATOLOGIC EVENTS,
CDISCPILOT01,703,01-703-1119,Xanomeline Low Dose,54,81,>80,3,WHITE,1,F,Y,2013-02-20,2013-06-13,2013-05-04,,74,NA,NA,NA,,PRURITUS,ITCHING,NA,PRURITUS,NA,HLT_0778,NA,HLGT_0695,NA,SKIN AND SUBCUTANEOUS TISSUE DISORDERS,SKIN AND SUBCUTANEOUS TISSUE DISORDERS,NA,MODERATE,N,N,N,N,N,N,N,N,PROBABLE,,NOT RECOVERED/NOT RESOLVED,3,Y,,Y,Y,,,,DERMATOLOGIC EVENTS,
CDISCPILOT01,703,01-703-1119,Xanomeline Low Dose,54,81,>80,3,WHITE,1,F,Y,2013-02-20,2013-06-13,2013-05-04,,74,NA,NA,NA,,PRURITUS,ITCHING,NA,PRURITUS,NA,HLT_0778,NA,HLGT_0695,NA,SKIN AND SUBCUTANEOUS TISSUE DISORDERS,SKIN AND SUBCUTANEOUS TISSUE DISORDERS,NA,SEVERE,N,N,N,N,N,N,N,N,PROBABLE,,NOT RECOVERED/NOT RESOLVED,4,Y,,,,,,,DERMATOLOGIC EVENTS,
CDISCPILOT01,703,01-703-1175,Placebo,0,75,65-80,2,WHITE,1,M,Y,2013-12-20,2013-12-26,2013-12-18,,-2,NA,NA,NA,,ATRIOVENTRICULAR BLOCK SECOND DEGREE,HEART BLOCK SECOND DEGREE,NA,ATRIOVENTRICULAR BLOCK SECOND DEGREE,NA,HLT_0415,NA,HLGT_0086,NA,CARDIAC DISORDERS,CARDIAC DISORDERS,NA,SEVERE,N,N,N,N,N,N,N,N,NONE,,NOT RECOVERED/NOT RESOLVED,1,N,,,,,,,,
CDISCPILOT01,703,01-703-1182,Xanomeline Low Dose,54,84,>80,3,WHITE,1,M,Y,2013-10-17,2013-12-11,2013-10-31,,15,NA,NA,NA,,APPLICATION SITE ERYTHEMA,APPLICATION SITE REDNESS,NA,APPLICATION SITE ERYTHEMA,NA,HLT_0617,NA,HLGT_0152,NA,GENERAL DISORDERS AND ADMINISTRATION SITE CONDITIONS,GENERAL DISORDERS AND ADMINISTRATION SITE CONDITIONS,NA,MILD,N,N,N,N,N,N,N,N,POSSIBLE,,NOT RECOVERED/NOT RESOLVED,1,Y,Y,Y,Y,,,,DERMATOLOGIC EVENTS,Y
CDISCPILOT01,703,01-703-1182,Xanomeline Low Dose,54,84,>80,3,WHITE,1,M,Y,2013-10-17,2013-12-11,2013-10-31,,15,NA,NA,NA,,APPLICATION SITE ERYTHEMA,APPLICATION SITE REDNESS,NA,APPLICATION SITE ERYTHEMA,NA,HLT_0617,NA,HLGT_0152,NA,GENERAL DISORDERS AND ADMINISTRATION SITE CONDITIONS,GENERAL DISORDERS AND ADMINISTRATION SITE CONDITIONS,NA,MODERATE,N,N,N,N,N,N,N,N,POSSIBLE,,NOT RECOVERED/NOT RESOLVED,2,Y,,,,,,,DERMATOLOGIC EVENTS,
CDISCPILOT01,703,01-703-1182,Xanomeline Low Dose,54,84,>80,3,WHITE,1,M,Y,2013-10-17,2013-12-11,2013-11-22,,37,NA,NA,NA,,SOMNOLENCE,DROWSINESS,NA,SOMNOLENCE,NA,HLT_0160,NA,HLGT_0254,NA,NERVOUS SYSTEM DISORDERS,NERVOUS SYSTEM DISORDERS,NA,MILD,N,N,N,N,N,N,N,N,REMOTE,,NOT RECOVERED/NOT RESOLVED,3,Y,,Y,Y,,,,,
CDISCPILOT01,703,01-703-1182,Xanomeline Low Dose,54,84,>80,3,WHITE,1,M,Y,2013-10-17,2013-12-11,2013-11-22,,37,NA,NA,NA,,SOMNOLENCE,DROWSINESS,NA,SOMNOLENCE,NA,HLT_0160,NA,HLGT_0254,NA,NERVOUS SYSTEM DISORDERS,NERVOUS SYSTEM DISORDERS,NA,MODERATE,N,N,N,N,N,N,N,N,REMOTE,,NOT RECOVERED/NOT RESOLVED,4,Y,,,,,,,,
CDISCPILOT01,703,01-703-1210,Placebo,0,72,65-80,2,WHITE,1,F,Y,2013-03-16,2013-09-06,2013-04-02,,18,NA,NA,NA,,DISORIENTATION,DISORIENTATION,NA,DISORIENTATION,NA,HLT_0299,NA,HLGT_0307,NA,PSYCHIATRIC DISORDERS,PSYCHIATRIC DISORDERS,NA,MILD,N,N,N,N,N,N,N,N,REMOTE,,NOT RECOVERED/NOT RESOLVED,1,Y,Y,Y,Y,,,,,
CDISCPILOT01,703,01-703-1210,Placebo,0,72,65-80,2,WHITE,1,F,Y,2013-03-16,2013-09-06,2013-05-04,,50,NA,NA,NA,,DECREASED APPETITE,DECREASED APPETITE,NA,DECREASED APPETITE,NA,HLT_0574,NA,HLGT_0231,NA,METABOLISM AND NUTRITION DISORDERS,METABOLISM AND NUTRITION DISORDERS,NA,MILD,N,N,N,N,N,N,N,N,POSSIBLE,,NOT RECOVERED/NOT RESOLVED,2,Y,,Y,Y,,,,,
CDISCPILOT01,703,01-703-1210,Placebo,0,72,65-80,2,WHITE,1,F,Y,2013-03-16,2013-09-06,2013-05-04,,50,NA,NA,NA,,DECREASED APPETITE,DECREASED APPETITE,NA,DECREASED APPETITE,NA,HLT_0574,NA,HLGT_0231,NA,METABOLISM AND NUTRITION DISORDERS,METABOLISM AND NUTRITION DISORDERS,NA,MODERATE,N,N,N,N,N,N,N,N,POSSIBLE,,NOT RECOVERED/NOT RESOLVED,3,Y,,,,,,,,
CDISCPILOT01,703,01-703-1258,Xanomeline High Dose,81,78,65-80,2,WHITE,1,F,Y,2012-07-20,2013-01-11,2012-08-11,,23,2012-08-19,31,9,DAY,UPPER RESPIRATORY TRACT INFECTION,UPPER RESPIRATORY INFECTION,NA,UPPER RESPIRATORY TRACT INFECTION,NA,HLT_0520,NA,HLGT_0489,NA,INFECTIONS AND INFESTATIONS,INFECTIONS AND INFESTATIONS,NA,MILD,N,N,N,N,N,N,N,N,NONE,,NOT RECOVERED/NOT RESOLVED,1,Y,Y,Y,Y,,,,,
CDISCPILOT01,703,01-703-1258,Xanomeline High Dose,81,78,65-80,2,WHITE,1,F,Y,2012-07-20,2013-01-11,NA,,NA,NA,NA,NA,,DIZZINESS,DIZZINESS,NA,DIZZINESS,NA,HLT_0619,NA,HLGT_0751,NA,NERVOUS SYSTEM DISORDERS,NERVOUS SYSTEM DISORDERS,NA,MODERATE,N,N,N,N,N,N,N,N,NONE,,NOT RECOVERED/NOT RESOLVED,2,N,,,,,,,,
CDISCPILOT01,703,01-703-1258,Xanomeline High Dose,81,78,65-80,2,WHITE,1,F,Y,2012-07-20,2013-01-11,2012-08-11,,23,2012-08-19,31,9,DAY,UPPER RESPIRATORY TRACT INFECTION,UPPER RESPIRATORY INFECTION,NA,UPPER RESPIRATORY TRACT INFECTION,NA,HLT_0520,NA,HLGT_0489,NA,INFECTIONS AND INFESTATIONS,INFECTIONS AND INFESTATIONS,NA,MILD,N,N,N,N,N,N,N,N,NONE,,RECOVERED/RESOLVED,3,Y,,,,,,,,
CDISCPILOT01,703,01-703-1258,Xanomeline High Dose,81,78,65-80,2,WHITE,1,F,Y,2012-07-20,2013-01-11,2012-09-04,,47,2013-01-25,190,144,DAY,APPLICATION SITE DERMATITIS,APPLICATION SITE RASH,NA,APPLICATION SITE DERMATITIS,NA,HLT_0343,NA,HLGT_0241,NA,GENERAL DISORDERS AND ADMINISTRATION SITE CONDITIONS,GENERAL DISORDERS AND ADMINISTRATION SITE CONDITIONS,NA,MILD,N,N,N,N,N,N,N,N,PROBABLE,,NOT RECOVERED/NOT RESOLVED,4,Y,,Y,Y,,,,DERMATOLOGIC EVENTS,Y
CDISCPILOT01,703,01-703-1258,Xanomeline High Dose,81,78,65-80,2,WHITE,1,F,Y,2012-07-20,2013-01-11,NA,,NA,NA,NA,NA,,DIZZINESS,DIZZINESS,NA,DIZZINESS,NA,HLT_0619,NA,HLGT_0751,NA,NERVOUS SYSTEM DISORDERS,NERVOUS SYSTEM DISORDERS,NA,MILD,N,N,N,N,N,N,N,N,NONE,,NOT RECOVERED/NOT RESOLVED,5,N,,,,,,,,
CDISCPILOT01,703,01-703-1258,Xanomeline High Dose,81,78,65-80,2,WHITE,1,F,Y,2012-07-20,2013-01-11,2012-09-04,,47,2013-01-25,190,144,DAY,APPLICATION SITE DERMATITIS,APPLICATION SITE RASH,NA,APPLICATION SITE DERMATITIS,NA,HLT_0343,NA,HLGT_0241,NA,GENERAL DISORDERS AND ADMINISTRATION SITE CONDITIONS,GENERAL DISORDERS AND ADMINISTRATION SITE CONDITIONS,NA,MODERATE,N,N,N,N,N,N,N,N,PROBABLE,,NOT RECOVERED/NOT RESOLVED,6,Y,,,,,,,DERMATOLOGIC EVENTS,
CDISCPILOT01,703,01-703-1258,Xanomeline High Dose,81,78,65-80,2,WHITE,1,F,Y,2012-07-20,2013-01-11,2012-09-04,,47,2013-01-25,190,144,DAY,APPLICATION SITE DERMATITIS,APPLICATION SITE RASH,NA,APPLICATION SITE DERMATITIS,NA,HLT_0343,NA,HLGT_0241,NA,GENERAL DISORDERS AND ADMINISTRATION SITE CONDITIONS,GENERAL DISORDERS AND ADMINISTRATION SITE CONDITIONS,NA,MILD,N,N,N,N,N,N,N,N,PROBABLE,,RECOVERED/RESOLVED,7,Y,,,,,,,DERMATOLOGIC EVENTS,
CDISCPILOT01,703,01-703-1295,Xanomeline High Dose,81,88,>80,3,WHITE,1,F,Y,2013-11-21,2014-04-19,2013-12-28,,38,NA,NA,NA,,ARTHRITIS,ARTHRITIS,NA,ARTHRITIS,NA,HLT_0019,NA,HLGT_0587,NA,MUSCULOSKELETAL AND CONNECTIVE TISSUE DISORDERS,MUSCULOSKELETAL AND CONNECTIVE TISSUE DISORDERS,NA,MODERATE,N,N,N,N,N,N,N,N,NONE,,NOT RECOVERED/NOT RESOLVED,1,Y,Y,Y,Y,,,,,
CDISCPILOT01,703,01-703-1299,Placebo,0,81,>80,3,WHITE,1,F,Y,2012-09-12,2013-03-13,2012-09-27,,16,2012-10-06,25,10,DAY,UPPER RESPIRATORY TRACT INFECTION,UPPER RESPIRATORY INFECTION,NA,UPPER RESPIRATORY TRACT INFECTION,NA,HLT_0520,NA,HLGT_0489,NA,INFECTIONS AND INFESTATIONS,INFECTIONS AND INFESTATIONS,NA,MILD,N,N,N,N,N,N,N,N,NONE,,NOT RECOVERED/NOT RESOLVED,1,Y,Y,Y,Y,,,,,
CDISCPILOT01,703,01-703-1299,Placebo,0,81,>80,3,WHITE,1,F,Y,2012-09-12,2013-03-13,2012-09-27,,16,2012-10-06,25,10,DAY,UPPER RESPIRATORY TRACT INFECTION,UPPER RESPIRATORY INFECTION,NA,UPPER RESPIRATORY TRACT INFECTION,NA,HLT_0520,NA,HLGT_0489,NA,INFECTIONS AND INFESTATIONS,INFECTIONS AND INFESTATIONS,NA,MILD,N,N,N,N,N,N,N,N,NONE,,RECOVERED/RESOLVED,2,Y,,,,,,,,
CDISCPILOT01,703,01-703-1299,Placebo,0,81,>80,3,WHITE,1,F,Y,2012-09-12,2013-03-13,NA,,NA,NA,NA,NA,,GLAUCOMA,GLAUCOMA,NA,GLAUCOMA,NA,HLT_0556,NA,HLGT_0734,NA,EYE DISORDERS,EYE DISORDERS,NA,MODERATE,N,N,N,N,N,N,N,N,NONE,,NOT RECOVERED/NOT RESOLVED,3,N,,,,,,,,
CDISCPILOT01,703,01-703-1299,Placebo,0,81,>80,3,WHITE,1,F,Y,2012-09-12,2013-03-13,2013-03-01,,171,NA,NA,NA,,HYPOTENSION,HYPOTENSION,NA,HYPOTENSION,NA,HLT_0761,NA,HLGT_0412,NA,VASCULAR DISORDERS,VASCULAR DISORDERS,NA,MILD,N,N,N,N,N,N,N,N,REMOTE,,NOT RECOVERED/NOT RESOLVED,4,Y,,Y,Y,,,,,
CDISCPILOT01,703,01-703-1299,Placebo,0,81,>80,3,WHITE,1,F,Y,2012-09-12,2013-03-13,2013-03-01,,171,NA,NA,NA,,TACHYCARDIA,TACHYCARDIA,NA,TACHYCARDIA,NA,HLT_0082,NA,HLGT_0574,NA,CARDIAC DISORDERS,CARDIAC DISORDERS,NA,MILD,N,N,N,N,N,N,N,N,REMOTE,,NOT RECOVERED/NOT RESOLVED,5,Y,,Y,Y,,,,,
CDISCPILOT01,703,01-703-1299,Placebo,0,81,>80,3,WHITE,1,F,Y,2012-09-12,2013-03-13,2013-03-01,,171,NA,NA,NA,,HYPOTENSION,HYPOTENSION,NA,HYPOTENSION,NA,HLT_0761,NA,HLGT_0412,NA,VASCULAR DISORDERS,VASCULAR DISORDERS,NA,MODERATE,N,N,N,N,N,N,N,N,REMOTE,,NOT RECOVERED/NOT RESOLVED,6,Y,,,,,,,,
CDISCPILOT01,703,01-703-1299,Placebo,0,81,>80,3,WHITE,1,F,Y,2012-09-12,2013-03-13,2013-03-01,,171,NA,NA,NA,,TACHYCARDIA,TACHYCARDIA,NA,TACHYCARDIA,NA,HLT_0082,NA,HLGT_0574,NA,CARDIAC DISORDERS,CARDIAC DISORDERS,NA,MODERATE,N,N,N,N,N,N,N,N,REMOTE,,NOT RECOVERED/NOT RESOLVED,7,Y,,,,,,,,
CDISCPILOT01,703,01-703-1299,Placebo,0,81,>80,3,WHITE,1,F,Y,2012-09-12,2013-03-13,2013-03-13,,183,NA,NA,NA,,MYOCARDIAL INFARCTION,MYOCARDIAL INFARCTION,NA,MYOCARDIAL INFARCTION,NA,HLT_0649,NA,HLGT_0688,NA,CARDIAC DISORDERS,CARDIAC DISORDERS,NA,MODERATE,N,N,N,N,N,N,N,N,REMOTE,,NOT RECOVERED/NOT RESOLVED,8,Y,,,Y,,,,,
CDISCPILOT01,703,01-703-1335,Xanomeline High Dose,81,67,65-80,2,BLACK OR AFRICAN AMERICAN,2,F,Y,2014-03-17,2014-05-07,2014-03-15,,-2,2014-03-30,14,16,DAY,ATRIOVENTRICULAR BLOCK SECOND DEGREE,AV BLOCK SECOND DEGREE,NA,ATRIOVENTRICULAR BLOCK SECOND DEGREE,NA,HLT_0415,NA,HLGT_0086,NA,CARDIAC DISORDERS,CARDIAC DISORDERS,NA,MILD,N,N,N,N,N,N,N,N,NONE,,NOT RECOVERED/NOT RESOLVED,1,N,,,,,,,,
CDISCPILOT01,703,01-703-1335,Xanomeline High Dose,81,67,65-80,2,BLACK OR AFRICAN AMERICAN,2,F,Y,2014-03-17,2014-05-07,2014-03-15,,-2,2014-03-30,14,16,DAY,ATRIOVENTRICULAR BLOCK SECOND DEGREE,AV BLOCK SECOND DEGREE,NA,ATRIOVENTRICULAR BLOCK SECOND DEGREE,NA,HLT_0415,NA,HLGT_0086,NA,CARDIAC DISORDERS,CARDIAC DISORDERS,NA,MILD,N,N,N,N,N,N,N,N,NONE,,RECOVERED/RESOLVED,2,N,,,,,,,,
CDISCPILOT01,703,01-703-1403,Xanomeline High Dose,81,67,65-80,2,WHITE,1,M,Y,2012-12-12,2012-12-13,2012-12-12,,1,2012-12-19,8,8,DAY,WEIGHT DECREASED,WEIGHT LOSS,NA,WEIGHT DECREASED,NA,HLT_0158,NA,HLGT_0778,NA,INVESTIGATIONS,INVESTIGATIONS,NA,MODERATE,N,N,N,N,N,N,N,N,NONE,,NOT RECOVERED/NOT RESOLVED,1,Y,Y,Y,Y,,,,,
CDISCPILOT01,703,01-703-1403,Xanomeline High Dose,81,67,65-80,2,WHITE,1,M,Y,2012-12-12,2012-12-13,2012-12-13,,2,2012-12-14,3,2,DAY,DIARRHOEA,DIARRHEA,NA,DIARRHOEA,NA,HLT_0148,NA,HLGT_0588,NA,GASTROINTESTINAL DISORDERS,GASTROINTESTINAL DISORDERS,NA,MODERATE,N,N,N,N,N,N,N,N,PROBABLE,,RECOVERED/RESOLVED,2,Y,,Y,Y,,,,,
CDISCPILOT01,703,01-703-1403,Xanomeline High Dose,81,67,65-80,2,WHITE,1,M,Y,2012-12-12,2012-12-13,2012-12-13,,2,2012-12-14,3,2,DAY,VOMITING,VOMITING,NA,VOMITING,NA,HLT_0016,NA,HLGT_0350,NA,GASTROINTESTINAL DISORDERS,GASTROINTESTINAL DISORDERS,NA,MODERATE,N,N,N,N,N,N,N,N,PROBABLE,,RECOVERED/RESOLVED,3,Y,,,Y,,,,,
CDISCPILOT01,703,01-703-1403,Xanomeline High Dose,81,67,65-80,2,WHITE,1,M,Y,2012-12-12,2012-12-13,2012-12-15,,4,2012-12-16,5,2,DAY,CHEST DISCOMFORT,CHEST TIGHTNESS,NA,CHEST DISCOMFORT,NA,HLT_0593,NA,HLGT_0441,NA,GENERAL DISORDERS AND ADMINISTRATION SITE CONDITIONS,GENERAL DISORDERS AND ADMINISTRATION SITE CONDITIONS,NA,MILD,N,N,N,N,N,N,N,N,PROBABLE,,RECOVERED/RESOLVED,4,Y,,Y,Y,,,,,
CDISCPILOT01,703,01-703-1403,Xanomeline High Dose,81,67,65-80,2,WHITE,1,M,Y,2012-12-12,2012-12-13,2012-12-12,,1,2012-12-19,8,8,DAY,WEIGHT DECREASED,WEIGHT LOSS,NA,WEIGHT DECREASED,NA,HLT_0158,NA,HLGT_0778,NA,INVESTIGATIONS,INVESTIGATIONS,NA,MODERATE,N,N,N,N,N,N,N,N,NONE,,RECOVERED/RESOLVED,5,Y,,,,,,,,
CDISCPILOT01,703,01-703-1439,Xanomeline High Dose,81,76,65-80,2,WHITE,1,F,Y,2014-03-12,2014-09-11,2014-04-24,,44,NA,NA,NA,,APPLICATION SITE IRRITATION,APPLICATION SITE IRRITATION,NA,APPLICATION SITE IRRITATION,NA,HLT_0061,NA,HLGT_0346,NA,GENERAL DISORDERS AND ADMINISTRATION SITE CONDITIONS,GENERAL DISORDERS AND ADMINISTRATION SITE CONDITIONS,NA,MILD,N,N,N,N,N,N,N,N,PROBABLE,,NOT RECOVERED/NOT RESOLVED,1,Y,Y,Y,Y,,,,DERMATOLOGIC EVENTS,Y
CDISCPILOT01,703,01-703-1439,Xanomeline High Dose,81,76,65-80,2,WHITE,1,F,Y,2014-03-12,2014-09-11,2014-04-24,,44,NA,NA,NA,,APPLICATION SITE IRRITATION,APPLICATION SITE IRRITATION,NA,APPLICATION SITE IRRITATION,NA,HLT_0061,NA,HLGT_0346,NA,GENERAL DISORDERS AND ADMINISTRATION SITE CONDITIONS,GENERAL DISORDERS AND ADMINISTRATION SITE CONDITIONS,NA,MODERATE,N,N,N,N,N,N,N,N,PROBABLE,,NOT RECOVERED/NOT RESOLVED,2,Y,,,,,,,DERMATOLOGIC EVENTS,
CDISCPILOT01,704,01-704-1008,Xanomeline High Dose,81,76,65-80,2,WHITE,1,F,Y,2013-01-13,2013-02-21,2013-01-30,,18,NA,NA,NA,,HYPERHIDROSIS,SWEATING INCREASED,NA,HYPERHIDROSIS,NA,HLT_0587,NA,HLGT_0005,NA,SKIN AND SUBCUTANEOUS TISSUE DISORDERS,SKIN AND SUBCUTANEOUS TISSUE DISORDERS,NA,MILD,N,N,N,N,N,N,N,N,POSSIBLE,,NOT RECOVERED/NOT RESOLVED,1,Y,Y,Y,Y,,,,,
CDISCPILOT01,704,01-704-1008,Xanomeline High Dose,81,76,65-80,2,WHITE,1,F,Y,2013-01-13,2013-02-21,2013-02-21,,40,2013-02-21,40,1,DAY,TRANSIENT ISCHAEMIC ATTACK,TRANSIENT ISCHEMIC ATTACKS,NA,TRANSIENT ISCHAEMIC ATTACK,NA,HLT_0041,NA,HLGT_0433,NA,NERVOUS SYSTEM DISORDERS,NERVOUS SYSTEM DISORDERS,NA,SEVERE,N,N,N,N,N,Y,N,N,NONE,,RECOVERED/RESOLVED,2,Y,,Y,Y,,,,,
CDISCPILOT01,704,01-704-1008,Xanomeline High Dose,81,76,65-80,2,WHITE,1,F,Y,2013-01-13,2013-02-21,2013-02-25,,44,NA,NA,NA,,SINUS BRADYCARDIA,SINUS BRADYCARDIA,NA,SINUS BRADYCARDIA,NA,HLT_0644,NA,HLGT_0500,NA,CARDIAC DISORDERS,CARDIAC DISORDERS,NA,MODERATE,N,N,N,N,N,N,N,N,NONE,,NOT RECOVERED/NOT RESOLVED,3,Y,,Y,Y,,,,,
CDISCPILOT01,704,01-704-1009,Xanomeline Low Dose,54,83,>80,3,WHITE,1,M,Y,2013-08-27,2013-09-25,2013-09-05,,10,NA,NA,NA,,FATIGUE,FATIGUE,NA,FATIGUE,NA,HLT_0043,NA,HLGT_0181,NA,GENERAL DISORDERS AND ADMINISTRATION SITE CONDITIONS,GENERAL DISORDERS AND ADMINISTRATION SITE CONDITIONS,NA,MILD,N,N,N,N,N,N,N,N,REMOTE,,NOT RECOVERED/NOT RESOLVED,1,Y,Y,Y,Y,,,,,
CDISCPILOT01,704,01-704-1009,Xanomeline Low Dose,54,83,>80,3,WHITE,1,M,Y,2013-08-27,2013-09-25,2013-09-05,,10,2013-09-27,32,23,DAY,MALAISE,MALAISE,NA,MALAISE,NA,HLT_0456,NA,HLGT_0178,NA,GENERAL DISORDERS AND ADMINISTRATION SITE CONDITIONS,GENERAL DISORDERS AND ADMINISTRATION SITE CONDITIONS,NA,MILD,N,N,N,N,N,N,N,N,POSSIBLE,,NOT RECOVERED/NOT RESOLVED,2,Y,,,Y,,,,,
CDISCPILOT01,704,01-704-1009,Xanomeline Low Dose,54,83,>80,3,WHITE,1,M,Y,2013-08-27,2013-09-25,2013-09-14,,19,NA,NA,NA,,RASH,RASH,NA,RASH,NA,HLT_0762,NA,HLGT_0198,NA,SKIN AND SUBCUTANEOUS TISSUE DISORDERS,SKIN AND SUBCUTANEOUS TISSUE DISORDERS,NA,MILD,N,N,N,N,N,N,N,N,POSSIBLE,,NOT RECOVERED/NOT RESOLVED,3,Y,,Y,Y,,,,DERMATOLOGIC EVENTS,Y
CDISCPILOT01,704,01-704-1009,Xanomeline Low Dose,54,83,>80,3,WHITE,1,M,Y,2013-08-27,2013-09-25,2013-09-05,,10,2013-09-27,32,23,DAY,MALAISE,MALAISE,NA,MALAISE,NA,HLT_0456,NA,HLGT_0178,NA,GENERAL DISORDERS AND ADMINISTRATION SITE CONDITIONS,GENERAL DISORDERS AND ADMINISTRATION SITE CONDITIONS,NA,MILD,N,N,N,N,N,N,N,N,POSSIBLE,,RECOVERED/RESOLVED,4,Y,,,,,,,,
CDISCPILOT01,704,01-704-1009,Xanomeline Low Dose,54,83,>80,3,WHITE,1,M,Y,2013-08-27,2013-09-25,2013-09-17,,22,NA,NA,NA,,DIZZINESS,DIZZINESS,NA,DIZZINESS,NA,HLT_0619,NA,HLGT_0751,NA,NERVOUS SYSTEM DISORDERS,NERVOUS SYSTEM DISORDERS,NA,MILD,N,N,N,N,N,N,N,N,REMOTE,,NOT RECOVERED/NOT RESOLVED,5,Y,,Y,Y,,,,,
CDISCPILOT01,704,01-704-1009,Xanomeline Low Dose,54,83,>80,3,WHITE,1,M,Y,2013-08-27,2013-09-25,2013-09-22,,27,2013-09-23,28,2,DAY,NAUSEA,NAUSEA,NA,NAUSEA,NA,HLT_0742,NA,HLGT_0326,NA,GASTROINTESTINAL DISORDERS,GASTROINTESTINAL DISORDERS,NA,MILD,N,N,N,N,N,N,N,N,POSSIBLE,,RECOVERED/RESOLVED,6,Y,,Y,Y,,,,,
CDISCPILOT01,704,01-704-1010,Placebo,0,80,65-80,2,WHITE,1,M,Y,2014-02-21,2014-07-08,2014-02-27,,7,2014-03-06,14,8,DAY,CYSTITIS,BLADDER INFECTION,NA,CYSTITIS,NA,HLT_0739,NA,HLGT_0129,NA,INFECTIONS AND INFESTATIONS,INFECTIONS AND INFESTATIONS,NA,MILD,N,N,N,N,N,N,N,N,NONE,,RECOVERED/RESOLVED,1,Y,Y,Y,Y,,,,,
CDISCPILOT01,704,01-704-1010,Placebo,0,80,65-80,2,WHITE,1,M,Y,2014-02-21,2014-07-08,2014-07-05,,135,2014-07-06,136,2,DAY,VOMITING,VOMITING,NA,VOMITING,NA,HLT_0016,NA,HLGT_0350,NA,GASTROINTESTINAL DISORDERS,GASTROINTESTINAL DISORDERS,NA,MILD,N,N,N,N,N,N,N,N,NONE,,RECOVERED/RESOLVED,2,Y,,Y,Y,,,,,
CDISCPILOT01,704,01-704-1010,Placebo,0,80,65-80,2,WHITE,1,M,Y,2014-02-21,2014-07-08,2014-07-05,,135,2014-07-06,136,2,DAY,DIARRHOEA,DIARRHEA,NA,DIARRHOEA,NA,HLT_0148,NA,HLGT_0588,NA,GASTROINTESTINAL DISORDERS,GASTROINTESTINAL DISORDERS,NA,MILD,N,N,N,N,N,N,N,N,NONE,,RECOVERED/RESOLVED,3,Y,,,Y,,,,,
CDISCPILOT01,704,01-704-1010,Placebo,0,80,65-80,2,WHITE,1,M,Y,2014-02-21,2014-07-08,2014-07-06,,136,NA,NA,NA,,EXCORIATION,ABRASION NOS,NA,EXCORIATION,NA,HLT_0738,NA,HLGT_0511,NA,"INJURY, POISONING AND PROCEDURAL COMPLICATIONS","INJURY, POISONING AND PROCEDURAL COMPLICATIONS",NA,MILD,N,N,N,N,N,N,N,N,NONE,,NOT RECOVERED/NOT RESOLVED,4,Y,,Y,Y,,,,,
CDISCPILOT01,704,01-704-1010,Placebo,0,80,65-80,2,WHITE,1,M,Y,2014-02-21,2014-07-08,2014-07-06,,136,NA,NA,NA,,SKIN LACERATION,SKIN TEAR,NA,SKIN LACERATION,NA,HLT_0075,NA,HLGT_0118,NA,"INJURY, POISONING AND PROCEDURAL COMPLICATIONS","INJURY, POISONING AND PROCEDURAL COMPLICATIONS",NA,MILD,N,N,N,N,N,N,N,N,NONE,,NOT RECOVERED/NOT RESOLVED,5,Y,,,Y,,,,,
CDISCPILOT01,704,01-704-1010,Placebo,0,80,65-80,2,WHITE,1,M,Y,2014-02-21,2014-07-08,2014-07-06,,136,NA,NA,NA,,ARTHRALGIA,KNEE PAIN,NA,ARTHRALGIA,NA,HLT_0375,NA,HLGT_0610,NA,MUSCULOSKELETAL AND CONNECTIVE TISSUE DISORDERS,MUSCULOSKELETAL AND CONNECTIVE TISSUE DISORDERS,NA,MILD,N,N,N,N,N,N,N,N,NONE,,NOT RECOVERED/NOT RESOLVED,6,Y,,Y,Y,,,,,
CDISCPILOT01,704,01-704-1010,Placebo,0,80,65-80,2,WHITE,1,M,Y,2014-02-21,2014-07-08,2014-07-06,,136,NA,NA,NA,,CONTUSION,BRUISE OF HEAD,NA,CONTUSION,NA,HLT_0713,NA,HLGT_0381,NA,"INJURY, POISONING AND PROCEDURAL COMPLICATIONS","INJURY, POISONING AND PROCEDURAL COMPLICATIONS",NA,MILD,N,N,N,N,N,N,N,N,NONE,,NOT RECOVERED/NOT RESOLVED,7,Y,,,Y,,,,,
CDISCPILOT01,704,01-704-1017,Xanomeline High Dose,81,77,65-80,2,WHITE,1,M,Y,2013-10-06,2013-11-18,2013-10-19,,14,NA,NA,NA,,MYOCARDIAL INFARCTION,MYOCARDIAL INFARCTION,NA,MYOCARDIAL INFARCTION,NA,HLT_0649,NA,HLGT_0688,NA,CARDIAC DISORDERS,CARDIAC DISORDERS,NA,MILD,N,N,N,N,N,N,N,N,NONE,,NOT RECOVERED/NOT RESOLVED,1,Y,Y,Y,Y,,,,,
CDISCPILOT01,704,01-704-1017,Xanomeline High Dose,81,77,65-80,2,WHITE,1,M,Y,2013-10-06,2013-11-18,2013-10-19,,14,NA,NA,NA,,VENTRICULAR SEPTAL DEFECT,VENTRICULAR SEPTAL DEFECT,NA,VENTRICULAR SEPTAL DEFECT,NA,HLT_0589,NA,HLGT_0747,NA,"CONGENITAL, FAMILIAL AND GENETIC DISORDERS","CONGENITAL, FAMILIAL AND GENETIC DISORDERS",NA,MILD,N,N,N,N,N,N,N,N,NONE,,NOT RECOVERED/NOT RESOLVED,2,Y,,Y,Y,,,,,
CDISCPILOT01,704,01-704-1017,Xanomeline High Dose,81,77,65-80,2,WHITE,1,M,Y,2013-10-06,2013-11-18,2013-11-01,,27,2013-11-08,34,8,DAY,INFLUENZA,FLU,NA,INFLUENZA,NA,HLT_0125,NA,HLGT_0081,NA,INFECTIONS AND INFESTATIONS,INFECTIONS AND INFESTATIONS,NA,MILD,N,N,N,N,N,N,N,N,NONE,,RECOVERED/RESOLVED,3,Y,,Y,Y,,,,,
CDISCPILOT01,704,01-704-1017,Xanomeline High Dose,81,77,65-80,2,WHITE,1,M,Y,2013-10-06,2013-11-18,2013-11-01,,27,NA,NA,NA,,CARDIAC DISORDER,CARDIAC DISORDER,NA,CARDIAC DISORDER,NA,HLT_0507,NA,HLGT_0126,NA,CARDIAC DISORDERS,CARDIAC DISORDERS,NA,MILD,N,N,N,N,N,N,N,N,NONE,,NOT RECOVERED/NOT RESOLVED,4,Y,,,Y,,,,,
CDISCPILOT01,704,01-704-1017,Xanomeline High Dose,81,77,65-80,2,WHITE,1,M,Y,2013-10-06,2013-11-18,2013-11-05,,31,2013-11-22,48,18,DAY,RASH,RASH,NA,RASH,NA,HLT_0762,NA,HLGT_0198,NA,SKIN AND SUBCUTANEOUS TISSUE DISORDERS,SKIN AND SUBCUTANEOUS TISSUE DISORDERS,NA,MILD,N,N,N,N,N,N,N,N,PROBABLE,,NOT RECOVERED/NOT RESOLVED,5,Y,,Y,Y,,,,DERMATOLOGIC EVENTS,Y
CDISCPILOT01,704,01-704-1017,Xanomeline High Dose,81,77,65-80,2,WHITE,1,M,Y,2013-10-06,2013-11-18,2013-11-05,,31,2013-11-22,48,18,DAY,PRURITUS,ITCHING,NA,PRURITUS,NA,HLT_0778,NA,HLGT_0695,NA,SKIN AND SUBCUTANEOUS TISSUE DISORDERS,SKIN AND SUBCUTANEOUS TISSUE DISORDERS,NA,MILD,N,N,N,N,N,N,N,N,PROBABLE,,NOT RECOVERED/NOT RESOLVED,6,Y,,,Y,,,,DERMATOLOGIC EVENTS,
CDISCPILOT01,704,01-704-1017,Xanomeline High Dose,81,77,65-80,2,WHITE,1,M,Y,2013-10-06,2013-11-18,2013-11-05,,31,2013-11-22,48,18,DAY,RASH,RASH,NA,RASH,NA,HLT_0762,NA,HLGT_0198,NA,SKIN AND SUBCUTANEOUS TISSUE DISORDERS,SKIN AND SUBCUTANEOUS TISSUE DISORDERS,NA,MILD,N,N,N,N,N,N,N,N,PROBABLE,,RECOVERED/RESOLVED,7,Y,,,,,,,DERMATOLOGIC EVENTS,
CDISCPILOT01,704,01-704-1017,Xanomeline High Dose,81,77,65-80,2,WHITE,1,M,Y,2013-10-06,2013-11-18,2013-11-05,,31,2013-11-22,48,18,DAY,PRURITUS,ITCHING,NA,PRURITUS,NA,HLT_0778,NA,HLGT_0695,NA,SKIN AND SUBCUTANEOUS TISSUE DISORDERS,SKIN AND SUBCUTANEOUS TISSUE DISORDERS,NA,MILD,N,N,N,N,N,N,N,N,PROBABLE,,RECOVERED/RESOLVED,8,Y,,,,,,,DERMATOLOGIC EVENTS,
CDISCPILOT01,704,01-704-1025,Xanomeline Low Dose,54,81,>80,3,WHITE,1,F,Y,2013-09-27,2013-10-24,2013-09-28,,2,2013-09-30,4,3,DAY,VERTIGO,VERTIGO,NA,VERTIGO,NA,HLT_0255,NA,HLGT_0147,NA,EAR AND LABYRINTH DISORDERS,EAR AND LABYRINTH DISORDERS,NA,MODERATE,N,N,N,N,N,N,N,N,POSSIBLE,,RECOVERED/RESOLVED,1,Y,Y,Y,Y,,,,,
CDISCPILOT01,704,01-704-1025,Xanomeline Low Dose,54,81,>80,3,WHITE,1,F,Y,2013-09-27,2013-10-24,2013-09-28,,2,2013-09-30,4,3,DAY,PALPITATIONS,PALPITATIONS,NA,PALPITATIONS,NA,HLT_0493,NA,HLGT_0593,NA,CARDIAC DISORDERS,CARDIAC DISORDERS,NA,MODERATE,N,N,N,N,N,N,N,N,REMOTE,,RECOVERED/RESOLVED,2,Y,,Y,Y,,,,,
CDISCPILOT01,704,01-704-1025,Xanomeline Low Dose,54,81,>80,3,WHITE,1,F,Y,2013-09-27,2013-10-24,2013-10-11,,15,2013-10-25,29,15,DAY,ELECTROCARDIOGRAM ST SEGMENT DEPRESSION,ST SEGMENT DEPRESSED,NA,ELECTROCARDIOGRAM ST SEGMENT DEPRESSION,NA,HLT_0610,NA,HLGT_0220,NA,INVESTIGATIONS,INVESTIGATIONS,NA,MILD,N,N,N,N,N,N,N,N,POSSIBLE,,NOT RECOVERED/NOT RESOLVED,3,Y,,Y,Y,,,,,
CDISCPILOT01,704,01-704-1025,Xanomeline Low Dose,54,81,>80,3,WHITE,1,F,Y,2013-09-27,2013-10-24,2013-10-25,,29,2013-11-29,64,36,DAY,WOLFF-PARKINSON-WHITE SYNDROME,WOLFF-PARKINSON-WHITE SYNDROME,NA,WOLFF-PARKINSON-WHITE SYNDROME,NA,HLT_0612,NA,HLGT_0218,NA,CARDIAC DISORDERS,CARDIAC DISORDERS,NA,MILD,N,N,N,N,N,N,N,N,POSSIBLE,,NOT RECOVERED/NOT RESOLVED,4,Y,,,Y,,,,,
CDISCPILOT01,704,01-704-1025,Xanomeline Low Dose,54,81,>80,3,WHITE,1,F,Y,2013-09-27,2013-10-24,2013-10-11,,15,2013-10-25,29,15,DAY,ELECTROCARDIOGRAM ST SEGMENT DEPRESSION,ST SEGMENT DEPRESSED,NA,ELECTROCARDIOGRAM ST SEGMENT DEPRESSION,NA,HLT_0610,NA,HLGT_0220,NA,INVESTIGATIONS,INVESTIGATIONS,NA,MILD,N,N,N,N,N,N,N,N,POSSIBLE,,RECOVERED/RESOLVED,5,Y,,,,,,,,
CDISCPILOT01,704,01-704-1025,Xanomeline Low Dose,54,81,>80,3,WHITE,1,F,Y,2013-09-27,2013-10-24,2013-10-25,,29,2013-11-29,64,36,DAY,WOLFF-PARKINSON-WHITE SYNDROME,WOLFF-PARKINSON-WHITE SYNDROME,NA,WOLFF-PARKINSON-WHITE SYNDROME,NA,HLT_0612,NA,HLGT_0218,NA,CARDIAC DISORDERS,CARDIAC DISORDERS,NA,MILD,N,N,N,N,N,N,N,N,POSSIBLE,,RECOVERED/RESOLVED,6,Y,,,,,,,,
CDISCPILOT01,704,01-704-1065,Xanomeline High Dose,81,75,65-80,2,WHITE,1,M,Y,2013-10-24,2013-12-22,2013-10-26,,3,NA,NA,NA,,ABDOMINAL DISCOMFORT,ABDOMINAL DISCOMFORT,NA,ABDOMINAL DISCOMFORT,NA,HLT_0012,NA,HLGT_0332,NA,GASTROINTESTINAL DISORDERS,GASTROINTESTINAL DISORDERS,NA,MILD,N,N,N,N,N,N,N,N,REMOTE,,NOT RECOVERED/NOT RESOLVED,1,Y,Y,Y,Y,,,,,
CDISCPILOT01,704,01-704-1065,Xanomeline High Dose,81,75,65-80,2,WHITE,1,M,Y,2013-10-24,2013-12-22,2013-10-27,,4,NA,NA,NA,,RASH,RASH,NA,RASH,NA,HLT_0762,NA,HLGT_0198,NA,SKIN AND SUBCUTANEOUS TISSUE DISORDERS,SKIN AND SUBCUTANEOUS TISSUE DISORDERS,NA,MILD,N,N,N,N,N,N,N,N,PROBABLE,,NOT RECOVERED/NOT RESOLVED,2,Y,,Y,Y,,,,DERMATOLOGIC EVENTS,Y
CDISCPILOT01,704,01-704-1065,Xanomeline High Dose,81,75,65-80,2,WHITE,1,M,Y,2013-10-24,2013-12-22,2013-10-27,,4,NA,NA,NA,,APPLICATION SITE PRURITUS,APPLICATION SITE ITCHING,NA,APPLICATION SITE PRURITUS,NA,HLT_0317,NA,HLGT_0338,NA,GENERAL DISORDERS AND ADMINISTRATION SITE CONDITIONS,GENERAL DISORDERS AND ADMINISTRATION SITE CONDITIONS,NA,MODERATE,N,N,N,N,N,N,N,N,PROBABLE,,NOT RECOVERED/NOT RESOLVED,3,Y,,Y,Y,,,,DERMATOLOGIC EVENTS,
CDISCPILOT01,704,01-704-1065,Xanomeline High Dose,81,75,65-80,2,WHITE,1,M,Y,2013-10-24,2013-12-22,2013-11-09,,17,NA,NA,NA,,APPLICATION SITE IRRITATION,APPLICATION SITE BURNING,NA,APPLICATION SITE IRRITATION,NA,HLT_0061,NA,HLGT_0346,NA,GENERAL DISORDERS AND ADMINISTRATION SITE CONDITIONS,GENERAL DISORDERS AND ADMINISTRATION SITE CONDITIONS,NA,MILD,N,N,N,N,N,N,N,N,PROBABLE,,NOT RECOVERED/NOT RESOLVED,4,Y,,,Y,,,,DERMATOLOGIC EVENTS,
CDISCPILOT01,704,01-704-1065,Xanomeline High Dose,81,75,65-80,2,WHITE,1,M,Y,2013-10-24,2013-12-22,2013-11-09,,17,NA,NA,NA,,MALAISE,MALAISE,NA,MALAISE,NA,HLT_0456,NA,HLGT_0178,NA,GENERAL DISORDERS AND ADMINISTRATION SITE CONDITIONS,GENERAL DISORDERS AND ADMINISTRATION SITE CONDITIONS,NA,MILD,N,N,N,N,N,N,N,N,POSSIBLE,,NOT RECOVERED/NOT RESOLVED,5,Y,,,Y,,,,,
CDISCPILOT01,704,01-704-1065,Xanomeline High Dose,81,75,65-80,2,WHITE,1,M,Y,2013-10-24,2013-12-22,2013-11-09,,17,NA,NA,NA,,HYPERHIDROSIS,PERSPIRATION EXCESSIVE,NA,HYPERHIDROSIS,NA,HLT_0587,NA,HLGT_0005,NA,SKIN AND SUBCUTANEOUS TISSUE DISORDERS,SKIN AND SUBCUTANEOUS TISSUE DISORDERS,NA,MILD,N,N,N,N,N,N,N,N,POSSIBLE,,NOT RECOVERED/NOT RESOLVED,6,Y,,,Y,,,,,
CDISCPILOT01,704,01-704-1065,Xanomeline High Dose,81,75,65-80,2,WHITE,1,M,Y,2013-10-24,2013-12-22,2013-11-17,,25,2013-11-17,25,1,DAY,CHILLS,CHILLS,NA,CHILLS,NA,HLT_0586,NA,HLGT_0161,NA,GENERAL DISORDERS AND ADMINISTRATION SITE CONDITIONS,GENERAL DISORDERS AND ADMINISTRATION SITE CONDITIONS,NA,MILD,N,N,N,N,N,N,N,N,REMOTE,,RECOVERED/RESOLVED,7,Y,,,Y,,,,,
CDISCPILOT01,704,01-704-1065,Xanomeline High Dose,81,75,65-80,2,WHITE,1,M,Y,2013-10-24,2013-12-22,2013-11-17,,25,2013-11-17,25,1,DAY,DIZZINESS,DIZZINESS,NA,DIZZINESS,NA,HLT_0619,NA,HLGT_0751,NA,NERVOUS SYSTEM DISORDERS,NERVOUS SYSTEM DISORDERS,NA,MILD,N,N,N,N,N,N,N,N,REMOTE,,RECOVERED/RESOLVED,8,Y,,Y,Y,,,,,
CDISCPILOT01,704,01-704-1065,Xanomeline High Dose,81,75,65-80,2,WHITE,1,M,Y,2013-10-24,2013-12-22,2013-12-15,,53,2013-12-15,53,1,DAY,DIARRHOEA,DIARRHEA,NA,DIARRHOEA,NA,HLT_0148,NA,HLGT_0588,NA,GASTROINTESTINAL DISORDERS,GASTROINTESTINAL DISORDERS,NA,MILD,N,N,N,N,N,N,N,N,REMOTE,,RECOVERED/RESOLVED,9,Y,,,Y,,,,,
CDISCPILOT01,704,01-704-1065,Xanomeline High Dose,81,75,65-80,2,WHITE,1,M,Y,2013-10-24,2013-12-22,2013-12-24,,62,NA,NA,NA,,SINUS BRADYCARDIA,BRADYCARDIA SINUS,NA,SINUS BRADYCARDIA,NA,HLT_0644,NA,HLGT_0500,NA,CARDIAC DISORDERS,CARDIAC DISORDERS,NA,MILD,N,N,N,N,N,N,N,N,NONE,,NOT RECOVERED/NOT RESOLVED,10,Y,,Y,Y,,,,,
CDISCPILOT01,704,01-704-1074,Xanomeline High Dose,81,80,65-80,2,WHITE,1,F,Y,2014-01-22,2014-03-20,2014-01-22,,1,NA,NA,NA,,PRURITUS,ITCHING,NA,PRURITUS,NA,HLT_0778,NA,HLGT_0695,NA,SKIN AND SUBCUTANEOUS TISSUE DISORDERS,SKIN AND SUBCUTANEOUS TISSUE DISORDERS,NA,MILD,N,N,N,N,N,N,N,N,PROBABLE,,NOT RECOVERED/NOT RESOLVED,1,Y,Y,Y,Y,,,,DERMATOLOGIC EVENTS,Y
CDISCPILOT01,704,01-704-1074,Xanomeline High Dose,81,80,65-80,2,WHITE,1,F,Y,2014-01-22,2014-03-20,2014-02-09,,19,NA,NA,NA,,ERYTHEMA,SKIN RED,NA,ERYTHEMA,NA,HLT_0284,NA,HLGT_0192,NA,SKIN AND SUBCUTANEOUS TISSUE DISORDERS,SKIN AND SUBCUTANEOUS TISSUE DISORDERS,NA,MILD,N,N,N,N,N,N,N,N,PROBABLE,,NOT RECOVERED/NOT RESOLVED,2,Y,,,Y,,,,DERMATOLOGIC EVENTS,
CDISCPILOT01,704,01-704-1093,Xanomeline High Dose,81,79,65-80,2,WHITE,1,M,Y,2013-03-15,2013-06-17,2013-03-30,,16,2013-04-13,30,15,DAY,BLOOD GLUCOSE INCREASED,GLUCOSE INCREASED,NA,BLOOD GLUCOSE INCREASED,NA,HLT_0450,NA,HLGT_0188,NA,INVESTIGATIONS,INVESTIGATIONS,NA,MILD,N,N,N,N,N,N,N,N,NONE,,NOT RECOVERED/NOT RESOLVED,1,Y,Y,Y,Y,,,,,
CDISCPILOT01,704,01-704-1093,Xanomeline High Dose,81,79,65-80,2,WHITE,1,M,Y,2013-03-15,2013-06-17,2013-03-30,,16,2013-04-13,30,15,DAY,BLOOD GLUCOSE INCREASED,GLUCOSE INCREASED,NA,BLOOD GLUCOSE INCREASED,NA,HLT_0450,NA,HLGT_0188,NA,INVESTIGATIONS,INVESTIGATIONS,NA,MILD,N,N,N,N,N,N,N,N,NONE,,RECOVERED/RESOLVED,2,Y,,,,,,,,
CDISCPILOT01,704,01-704-1093,Xanomeline High Dose,81,79,65-80,2,WHITE,1,M,Y,2013-03-15,2013-06-17,2013-05-04,,51,NA,NA,NA,,RASH,RASH,NA,RASH,NA,HLT_0762,NA,HLGT_0198,NA,SKIN AND SUBCUTANEOUS TISSUE DISORDERS,SKIN AND SUBCUTANEOUS TISSUE DISORDERS,NA,MILD,N,N,N,N,N,N,N,N,PROBABLE,,NOT RECOVERED/NOT RESOLVED,3,Y,,Y,Y,,,,DERMATOLOGIC EVENTS,Y
CDISCPILOT01,704,01-704-1093,Xanomeline High Dose,81,79,65-80,2,WHITE,1,M,Y,2013-03-15,2013-06-17,2013-05-04,,51,NA,NA,NA,,PRURITUS,ITCHING,NA,PRURITUS,NA,HLT_0778,NA,HLGT_0695,NA,SKIN AND SUBCUTANEOUS TISSUE DISORDERS,SKIN AND SUBCUTANEOUS TISSUE DISORDERS,NA,MILD,N,N,N,N,N,N,N,N,PROBABLE,,NOT RECOVERED/NOT RESOLVED,4,Y,,,Y,,,,DERMATOLOGIC EVENTS,
CDISCPILOT01,704,01-704-1114,Xanomeline Low Dose,54,77,65-80,2,WHITE,1,M,Y,2013-01-23,2013-07-07,2013-02-21,,30,2013-02-23,32,3,DAY,ERYTHEMA,REDNESS,NA,ERYTHEMA,NA,HLT_0284,NA,HLGT_0192,NA,SKIN AND SUBCUTANEOUS TISSUE DISORDERS,SKIN AND SUBCUTANEOUS TISSUE DISORDERS,NA,MILD,N,N,N,N,N,N,N,N,PROBABLE,,RECOVERED/RESOLVED,1,Y,Y,Y,Y,,,,DERMATOLOGIC EVENTS,Y
CDISCPILOT01,704,01-704-1114,Xanomeline Low Dose,54,77,65-80,2,WHITE,1,M,Y,2013-01-23,2013-07-07,2013-02-23,,32,NA,NA,NA,,OEDEMA,EDEMA,NA,OEDEMA,NA,HLT_0656,NA,HLGT_0036,NA,GENERAL DISORDERS AND ADMINISTRATION SITE CONDITIONS,GENERAL DISORDERS AND ADMINISTRATION SITE CONDITIONS,NA,MILD,N,N,N,N,N,N,N,N,PROBABLE,,NOT RECOVERED/NOT RESOLVED,2,Y,,Y,Y,,,,,
CDISCPILOT01,704,01-704-1114,Xanomeline Low Dose,54,77,65-80,2,WHITE,1,M,Y,2013-01-23,2013-07-07,2013-03-23,,60,NA,NA,NA,,RASH,RASH,NA,RASH,NA,HLT_0762,NA,HLGT_0198,NA,SKIN AND SUBCUTANEOUS TISSUE DISORDERS,SKIN AND SUBCUTANEOUS TISSUE DISORDERS,NA,MILD,N,N,N,N,N,N,N,N,PROBABLE,,NOT RECOVERED/NOT RESOLVED,3,Y,,,Y,,,,DERMATOLOGIC EVENTS,
CDISCPILOT01,704,01-704-1114,Xanomeline Low Dose,54,77,65-80,2,WHITE,1,M,Y,2013-01-23,2013-07-07,2013-03-23,,60,NA,NA,NA,,PRURITUS,ITCHING,NA,PRURITUS,NA,HLT_0778,NA,HLGT_0695,NA,SKIN AND SUBCUTANEOUS TISSUE DISORDERS,SKIN AND SUBCUTANEOUS TISSUE DISORDERS,NA,MILD,N,N,N,N,N,N,N,N,PROBABLE,,NOT RECOVERED/NOT RESOLVED,4,Y,,,Y,,,,DERMATOLOGIC EVENTS,
CDISCPILOT01,704,01-704-1114,Xanomeline Low Dose,54,77,65-80,2,WHITE,1,M,Y,2013-01-23,2013-07-07,2013-06-07,,136,2013-06-13,142,7,DAY,INFLUENZA,FLU,NA,INFLUENZA,NA,HLT_0125,NA,HLGT_0081,NA,INFECTIONS AND INFESTATIONS,INFECTIONS AND INFESTATIONS,NA,MILD,N,N,N,N,N,N,N,N,NONE,,RECOVERED/RESOLVED,5,Y,,Y,Y,,,,,
CDISCPILOT01,704,01-704-1120,Xanomeline Low Dose,54,71,65-80,2,WHITE,1,F,Y,2013-12-02,2014-02-01,2013-12-23,,22,NA,NA,NA,,RASH,RASH,NA,RASH,NA,HLT_0762,NA,HLGT_0198,NA,SKIN AND SUBCUTANEOUS TISSUE DISORDERS,SKIN AND SUBCUTANEOUS TISSUE DISORDERS,NA,MILD,N,N,N,N,N,N,N,N,PROBABLE,,NOT RECOVERED/NOT RESOLVED,1,Y,Y,Y,Y,,,,DERMATOLOGIC EVENTS,Y
CDISCPILOT01,704,01-704-1120,Xanomeline Low Dose,54,71,65-80,2,WHITE,1,F,Y,2013-12-02,2014-02-01,2013-12-28,,27,2014-02-03,64,38,DAY,NASOPHARYNGITIS,COLD,NA,NASOPHARYNGITIS,NA,HLT_0036,NA,HLGT_0709,NA,INFECTIONS AND INFESTATIONS,INFECTIONS AND INFESTATIONS,NA,MILD,N,N,N,N,N,N,N,N,NONE,,NOT RECOVERED/NOT RESOLVED,2,Y,,Y,Y,,,,,
CDISCPILOT01,704,01-704-1120,Xanomeline Low Dose,54,71,65-80,2,WHITE,1,F,Y,2013-12-02,2014-02-01,2013-12-23,,22,NA,NA,NA,,RASH,RASH,NA,RASH,NA,HLT_0762,NA,HLGT_0198,NA,SKIN AND SUBCUTANEOUS TISSUE DISORDERS,SKIN AND SUBCUTANEOUS TISSUE DISORDERS,NA,MODERATE,N,N,N,N,N,N,N,N,PROBABLE,,NOT RECOVERED/NOT RESOLVED,3,Y,,,,,,,DERMATOLOGIC EVENTS,
CDISCPILOT01,704,01-704-1120,Xanomeline Low Dose,54,71,65-80,2,WHITE,1,F,Y,2013-12-02,2014-02-01,2014-01-27,,57,NA,NA,NA,,PRURITUS,ITCHING,NA,PRURITUS,NA,HLT_0778,NA,HLGT_0695,NA,SKIN AND SUBCUTANEOUS TISSUE DISORDERS,SKIN AND SUBCUTANEOUS TISSUE DISORDERS,NA,MILD,N,N,N,N,N,N,N,N,PROBABLE,,NOT RECOVERED/NOT RESOLVED,4,Y,,,Y,,,,DERMATOLOGIC EVENTS,
CDISCPILOT01,704,01-704-1120,Xanomeline Low Dose,54,71,65-80,2,WHITE,1,F,Y,2013-12-02,2014-02-01,2014-01-27,,57,NA,NA,NA,,PRURITUS,ITCHING,NA,PRURITUS,NA,HLT_0778,NA,HLGT_0695,NA,SKIN AND SUBCUTANEOUS TISSUE DISORDERS,SKIN AND SUBCUTANEOUS TISSUE DISORDERS,NA,MODERATE,N,N,N,N,N,N,N,N,PROBABLE,,NOT RECOVERED/NOT RESOLVED,5,Y,,,,,,,DERMATOLOGIC EVENTS,
CDISCPILOT01,704,01-704-1120,Xanomeline Low Dose,54,71,65-80,2,WHITE,1,F,Y,2013-12-02,2014-02-01,2013-12-28,,27,2014-02-03,64,38,DAY,NASOPHARYNGITIS,COLD,NA,NASOPHARYNGITIS,NA,HLT_0036,NA,HLGT_0709,NA,INFECTIONS AND INFESTATIONS,INFECTIONS AND INFESTATIONS,NA,MILD,N,N,N,N,N,N,N,N,NONE,,RECOVERED/RESOLVED,6,Y,,,,,,,,
CDISCPILOT01,704,01-704-1135,Xanomeline Low Dose,54,74,65-80,2,WHITE,1,F,Y,2013-10-31,2014-05-16,2013-12-08,,39,NA,NA,NA,,RASH,RASH,NA,RASH,NA,HLT_0762,NA,HLGT_0198,NA,SKIN AND SUBCUTANEOUS TISSUE DISORDERS,SKIN AND SUBCUTANEOUS TISSUE DISORDERS,NA,MILD,N,N,N,N,N,N,N,N,,,NOT RECOVERED/NOT RESOLVED,1,Y,Y,Y,Y,,,,DERMATOLOGIC EVENTS,Y
CDISCPILOT01,704,01-704-1135,Xanomeline Low Dose,54,74,65-80,2,WHITE,1,F,Y,2013-10-31,2014-05-16,2013-12-08,,39,NA,NA,NA,,RASH,RASH,NA,RASH,NA,HLT_0762,NA,HLGT_0198,NA,SKIN AND SUBCUTANEOUS TISSUE DISORDERS,SKIN AND SUBCUTANEOUS TISSUE DISORDERS,NA,SEVERE,N,N,N,N,N,N,N,N,,,NOT RECOVERED/NOT RESOLVED,2,Y,,,,,,,DERMATOLOGIC EVENTS,
CDISCPILOT01,704,01-704-1164,Placebo,0,67,65-80,2,WHITE,1,F,Y,2012-09-19,2013-04-04,2012-09-27,,9,2012-10-07,19,11,DAY,INFLUENZA,FLU,NA,INFLUENZA,NA,HLT_0125,NA,HLGT_0081,NA,INFECTIONS AND INFESTATIONS,INFECTIONS AND INFESTATIONS,NA,MILD,N,N,N,N,N,N,N,N,NONE,,NOT RECOVERED/NOT RESOLVED,1,Y,Y,Y,Y,,,,,
CDISCPILOT01,704,01-704-1164,Placebo,0,67,65-80,2,WHITE,1,F,Y,2012-09-19,2013-04-04,2012-09-27,,9,2012-10-07,19,11,DAY,INFLUENZA,FLU,NA,INFLUENZA,NA,HLT_0125,NA,HLGT_0081,NA,INFECTIONS AND INFESTATIONS,INFECTIONS AND INFESTATIONS,NA,MILD,N,N,N,N,N,N,N,N,NONE,,RECOVERED/RESOLVED,2,Y,,,,,,,,
CDISCPILOT01,704,01-704-1164,Placebo,0,67,65-80,2,WHITE,1,F,Y,2012-09-19,2013-04-04,2013-02-04,,139,2013-02-13,148,10,DAY,OEDEMA PERIPHERAL,SWELLING OF FEET,NA,OEDEMA PERIPHERAL,NA,HLT_0661,NA,HLGT_0137,NA,GENERAL DISORDERS AND ADMINISTRATION SITE CONDITIONS,GENERAL DISORDERS AND ADMINISTRATION SITE CONDITIONS,NA,MILD,N,N,N,N,N,N,N,N,NONE,,RECOVERED/RESOLVED,3,Y,,Y,Y,,,,,
CDISCPILOT01,704,01-704-1218,Xanomeline Low Dose,54,81,>80,3,WHITE,1,F,Y,2012-11-19,2013-05-27,2012-12-30,,42,NA,NA,NA,,BLOOD GLUCOSE INCREASED,GLUCOSE INCREASED,NA,BLOOD GLUCOSE INCREASED,NA,HLT_0450,NA,HLGT_0188,NA,INVESTIGATIONS,INVESTIGATIONS,NA,MILD,N,N,N,N,N,N,N,N,NONE,,NOT RECOVERED/NOT RESOLVED,1,Y,Y,Y,Y,,,,,
CDISCPILOT01,704,01-704-1241,Xanomeline High Dose,81,86,>80,3,WHITE,1,M,Y,2013-08-25,2013-10-09,2013-08-14,,-11,NA,NA,NA,,RASH,RASH,NA,RASH,NA,HLT_0762,NA,HLGT_0198,NA,SKIN AND SUBCUTANEOUS TISSUE DISORDERS,SKIN AND SUBCUTANEOUS TISSUE DISORDERS,NA,MODERATE,N,N,N,N,N,N,N,N,NONE,,NOT RECOVERED/NOT RESOLVED,1,N,,,,,,,DERMATOLOGIC EVENTS,
CDISCPILOT01,704,01-704-1241,Xanomeline High Dose,81,86,>80,3,WHITE,1,M,Y,2013-08-25,2013-10-09,2013-09-28,,35,NA,NA,NA,,DYSPNOEA,RESPIRATION LABORED,NA,DYSPNOEA,NA,HLT_0296,NA,HLGT_0255,NA,"RESPIRATORY, THORACIC AND MEDIASTINAL DISORDERS","RESPIRATORY, THORACIC AND MEDIASTINAL DISORDERS",NA,MILD,N,N,N,N,N,N,N,N,NONE,,NOT RECOVERED/NOT RESOLVED,2,Y,Y,Y,Y,,,,,
CDISCPILOT01,704,01-704-1266,Xanomeline High Dose,81,82,>80,3,WHITE,1,M,Y,2013-10-13,2013-12-06,2013-10-06,,-7,NA,NA,NA,,SEASONAL ALLERGY,HAY FEVER,NA,SEASONAL ALLERGY,NA,HLT_0714,NA,HLGT_0782,NA,IMMUNE SYSTEM DISORDERS,IMMUNE SYSTEM DISORDERS,NA,MILD,N,N,N,N,N,N,N,N,NONE,,NOT RECOVERED/NOT RESOLVED,1,N,,,,,,,,
CDISCPILOT01,704,01-704-1266,Xanomeline High Dose,81,82,>80,3,WHITE,1,M,Y,2013-10-13,2013-12-06,2013-10-17,,5,2013-12-23,72,68,DAY,ERYTHEMA,ERYTHEMA,NA,ERYTHEMA,NA,HLT_0284,NA,HLGT_0192,NA,SKIN AND SUBCUTANEOUS TISSUE DISORDERS,SKIN AND SUBCUTANEOUS TISSUE DISORDERS,NA,MILD,N,N,N,N,N,N,N,N,PROBABLE,,NOT RECOVERED/NOT RESOLVED,2,Y,Y,Y,Y,,,,DERMATOLOGIC EVENTS,Y
CDISCPILOT01,704,01-704-1266,Xanomeline High Dose,81,82,>80,3,WHITE,1,M,Y,2013-10-13,2013-12-06,2013-10-27,,15,2013-11-08,27,13,DAY,ATRIAL FLUTTER,ATRIAL FLUTTER,NA,ATRIAL FLUTTER,NA,HLT_0477,NA,HLGT_0627,NA,CARDIAC DISORDERS,CARDIAC DISORDERS,NA,MILD,N,N,N,N,N,N,N,N,NONE,,NOT RECOVERED/NOT RESOLVED,3,Y,,Y,Y,,,,,
CDISCPILOT01,704,01-704-1266,Xanomeline High Dose,81,82,>80,3,WHITE,1,M,Y,2013-10-13,2013-12-06,2013-11-08,,27,2013-12-06,55,29,DAY,ATRIAL FIBRILLATION,ATRIAL FIBRILLATION,NA,ATRIAL FIBRILLATION,NA,HLT_0365,NA,HLGT_0012,NA,CARDIAC DISORDERS,CARDIAC DISORDERS,NA,MILD,N,N,N,N,N,N,N,N,NONE,,NOT RECOVERED/NOT RESOLVED,4,Y,,,Y,,,,,
CDISCPILOT01,704,01-704-1266,Xanomeline High Dose,81,82,>80,3,WHITE,1,M,Y,2013-10-13,2013-12-06,2013-10-27,,15,2013-11-08,27,13,DAY,ATRIAL FLUTTER,ATRIAL FLUTTER,NA,ATRIAL FLUTTER,NA,HLT_0477,NA,HLGT_0627,NA,CARDIAC DISORDERS,CARDIAC DISORDERS,NA,MILD,N,N,N,N,N,N,N,N,NONE,,RECOVERED/RESOLVED,5,Y,,,,,,,,
CDISCPILOT01,704,01-704-1266,Xanomeline High Dose,81,82,>80,3,WHITE,1,M,Y,2013-10-13,2013-12-06,2013-11-09,,28,2013-12-04,53,26,DAY,HYPERHIDROSIS,PERSPIRATION EXCESSIVE,NA,HYPERHIDROSIS,NA,HLT_0587,NA,HLGT_0005,NA,SKIN AND SUBCUTANEOUS TISSUE DISORDERS,SKIN AND SUBCUTANEOUS TISSUE DISORDERS,NA,MILD,N,N,N,N,N,N,N,N,POSSIBLE,,NOT RECOVERED/NOT RESOLVED,6,Y,,,Y,,,,,
CDISCPILOT01,704,01-704-1266,Xanomeline High Dose,81,82,>80,3,WHITE,1,M,Y,2013-10-13,2013-12-06,2013-11-15,,34,2013-12-14,63,30,DAY,BLISTER,BLISTERING,NA,BLISTER,NA,HLT_0752,NA,HLGT_0267,NA,SKIN AND SUBCUTANEOUS TISSUE DISORDERS,SKIN AND SUBCUTANEOUS TISSUE DISORDERS,NA,MILD,N,N,N,N,N,N,N,N,PROBABLE,,NOT RECOVERED/NOT RESOLVED,7,Y,,,Y,,,,DERMATOLOGIC EVENTS,
CDISCPILOT01,704,01-704-1266,Xanomeline High Dose,81,82,>80,3,WHITE,1,M,Y,2013-10-13,2013-12-06,2013-11-15,,34,2013-12-23,72,39,DAY,PRURITUS,ITCHING,NA,PRURITUS,NA,HLT_0778,NA,HLGT_0695,NA,SKIN AND SUBCUTANEOUS TISSUE DISORDERS,SKIN AND SUBCUTANEOUS TISSUE DISORDERS,NA,MILD,N,N,N,N,N,N,N,N,PROBABLE,,NOT RECOVERED/NOT RESOLVED,8,Y,,,Y,,,,DERMATOLOGIC EVENTS,
CDISCPILOT01,704,01-704-1266,Xanomeline High Dose,81,82,>80,3,WHITE,1,M,Y,2013-10-13,2013-12-06,2013-10-17,,5,2013-12-23,72,68,DAY,ERYTHEMA,ERYTHEMA,NA,ERYTHEMA,NA,HLT_0284,NA,HLGT_0192,NA,SKIN AND SUBCUTANEOUS TISSUE DISORDERS,SKIN AND SUBCUTANEOUS TISSUE DISORDERS,NA,MODERATE,N,N,N,N,N,N,N,N,PROBABLE,,NOT RECOVERED/NOT RESOLVED,9,Y,,,,,,,DERMATOLOGIC EVENTS,
CDISCPILOT01,704,01-704-1266,Xanomeline High Dose,81,82,>80,3,WHITE,1,M,Y,2013-10-13,2013-12-06,2013-11-09,,28,2013-12-04,53,26,DAY,HYPERHIDROSIS,PERSPIRATION EXCESSIVE,NA,HYPERHIDROSIS,NA,HLT_0587,NA,HLGT_0005,NA,SKIN AND SUBCUTANEOUS TISSUE DISORDERS,SKIN AND SUBCUTANEOUS TISSUE DISORDERS,NA,MILD,N,N,N,N,N,N,N,N,POSSIBLE,,RECOVERED/RESOLVED,10,Y,,,,,,,,
CDISCPILOT01,704,01-704-1266,Xanomeline High Dose,81,82,>80,3,WHITE,1,M,Y,2013-10-13,2013-12-06,2013-12-06,,55,2013-12-23,72,18,DAY,ERYTHEMA,REDNESS,NA,ERYTHEMA,NA,HLT_0284,NA,HLGT_0192,NA,SKIN AND SUBCUTANEOUS TISSUE DISORDERS,SKIN AND SUBCUTANEOUS TISSUE DISORDERS,NA,MILD,N,N,N,N,N,N,N,N,PROBABLE,,NOT RECOVERED/NOT RESOLVED,11,Y,,,,,,,DERMATOLOGIC EVENTS,
CDISCPILOT01,704,01-704-1266,Xanomeline High Dose,81,82,>80,3,WHITE,1,M,Y,2013-10-13,2013-12-06,2013-10-17,,5,2013-12-23,72,68,DAY,ERYTHEMA,ERYTHEMA,NA,ERYTHEMA,NA,HLT_0284,NA,HLGT_0192,NA,SKIN AND SUBCUTANEOUS TISSUE DISORDERS,SKIN AND SUBCUTANEOUS TISSUE DISORDERS,NA,MODERATE,N,N,N,N,N,N,N,N,PROBABLE,,RECOVERED/RESOLVED,12,Y,,,,,,,DERMATOLOGIC EVENTS,
CDISCPILOT01,704,01-704-1266,Xanomeline High Dose,81,82,>80,3,WHITE,1,M,Y,2013-10-13,2013-12-06,2013-11-08,,27,2013-12-06,55,29,DAY,ATRIAL FIBRILLATION,ATRIAL FIBRILLATION,NA,ATRIAL FIBRILLATION,NA,HLT_0365,NA,HLGT_0012,NA,CARDIAC DISORDERS,CARDIAC DISORDERS,NA,MILD,N,N,N,N,N,N,N,N,NONE,,RECOVERED/RESOLVED,13,Y,,,,,,,,
CDISCPILOT01,704,01-704-1266,Xanomeline High Dose,81,82,>80,3,WHITE,1,M,Y,2013-10-13,2013-12-06,2013-11-15,,34,2013-12-14,63,30,DAY,BLISTER,BLISTERING,NA,BLISTER,NA,HLT_0752,NA,HLGT_0267,NA,SKIN AND SUBCUTANEOUS TISSUE DISORDERS,SKIN AND SUBCUTANEOUS TISSUE DISORDERS,NA,MILD,N,N,N,N,N,N,N,N,PROBABLE,,RECOVERED/RESOLVED,14,Y,,,,,,,DERMATOLOGIC EVENTS,
CDISCPILOT01,704,01-704-1266,Xanomeline High Dose,81,82,>80,3,WHITE,1,M,Y,2013-10-13,2013-12-06,2013-11-15,,34,2013-12-23,72,39,DAY,PRURITUS,ITCHING,NA,PRURITUS,NA,HLT_0778,NA,HLGT_0695,NA,SKIN AND SUBCUTANEOUS TISSUE DISORDERS,SKIN AND SUBCUTANEOUS TISSUE DISORDERS,NA,MILD,N,N,N,N,N,N,N,N,PROBABLE,,RECOVERED/RESOLVED,15,Y,,,,,,,DERMATOLOGIC EVENTS,
CDISCPILOT01,704,01-704-1266,Xanomeline High Dose,81,82,>80,3,WHITE,1,M,Y,2013-10-13,2013-12-06,2013-12-06,,55,2013-12-23,72,18,DAY,ERYTHEMA,REDNESS,NA,ERYTHEMA,NA,HLT_0284,NA,HLGT_0192,NA,SKIN AND SUBCUTANEOUS TISSUE DISORDERS,SKIN AND SUBCUTANEOUS TISSUE DISORDERS,NA,MILD,N,N,N,N,N,N,N,N,PROBABLE,,RECOVERED/RESOLVED,16,Y,,,,,,,DERMATOLOGIC EVENTS,
CDISCPILOT01,704,01-704-1323,Xanomeline Low Dose,54,68,65-80,2,WHITE,1,F,Y,2013-07-08,2013-08-05,2013-07-30,,23,2013-08-03,27,5,DAY,VIRAL INFECTION,VIRAL INFECTION,NA,VIRAL INFECTION,NA,HLT_0733,NA,HLGT_0408,NA,INFECTIONS AND INFESTATIONS,INFECTIONS AND INFESTATIONS,NA,MILD,N,N,N,N,N,N,N,N,NONE,,RECOVERED/RESOLVED,1,Y,Y,Y,Y,,,,,
CDISCPILOT01,704,01-704-1323,Xanomeline Low Dose,54,68,65-80,2,WHITE,1,F,Y,2013-07-08,2013-08-05,2013-08-04,,28,NA,NA,NA,,RASH,RASH,NA,RASH,NA,HLT_0762,NA,HLGT_0198,NA,SKIN AND SUBCUTANEOUS TISSUE DISORDERS,SKIN AND SUBCUTANEOUS TISSUE DISORDERS,NA,MILD,N,N,N,N,N,N,N,N,PROBABLE,,NOT RECOVERED/NOT RESOLVED,2,Y,,Y,Y,,,,DERMATOLOGIC EVENTS,Y
CDISCPILOT01,704,01-704-1323,Xanomeline Low Dose,54,68,65-80,2,WHITE,1,F,Y,2013-07-08,2013-08-05,2013-08-04,,28,NA,NA,NA,,PRURITUS,ITCHING,NA,PRURITUS,NA,HLT_0778,NA,HLGT_0695,NA,SKIN AND SUBCUTANEOUS TISSUE DISORDERS,SKIN AND SUBCUTANEOUS TISSUE DISORDERS,NA,MILD,N,N,N,N,N,N,N,N,PROBABLE,,NOT RECOVERED/NOT RESOLVED,3,Y,,,Y,,,,DERMATOLOGIC EVENTS,
CDISCPILOT01,704,01-704-1323,Xanomeline Low Dose,54,68,65-80,2,WHITE,1,F,Y,2013-07-08,2013-08-05,2013-08-04,,28,NA,NA,NA,,OEDEMA,EDEMA,NA,OEDEMA,NA,HLT_0656,NA,HLGT_0036,NA,GENERAL DISORDERS AND ADMINISTRATION SITE CONDITIONS,GENERAL DISORDERS AND ADMINISTRATION SITE CONDITIONS,NA,MILD,N,N,N,N,N,N,N,N,PROBABLE,,NOT RECOVERED/NOT RESOLVED,4,Y,,Y,Y,,,,,
CDISCPILOT01,704,01-704-1325,Xanomeline Low Dose,54,81,>80,3,WHITE,1,M,Y,2014-04-23,2014-07-04,2014-05-23,,31,NA,NA,NA,,RASH,RASH,NA,RASH,NA,HLT_0762,NA,HLGT_0198,NA,SKIN AND SUBCUTANEOUS TISSUE DISORDERS,SKIN AND SUBCUTANEOUS TISSUE DISORDERS,NA,MILD,N,N,N,N,N,N,N,N,PROBABLE,,NOT RECOVERED/NOT RESOLVED,1,Y,Y,Y,Y,,,,DERMATOLOGIC EVENTS,Y
CDISCPILOT01,704,01-704-1325,Xanomeline Low Dose,54,81,>80,3,WHITE,1,M,Y,2014-04-23,2014-07-04,2014-07-04,,73,NA,NA,NA,,PRURITUS,ITCHING,NA,PRURITUS,NA,HLT_0778,NA,HLGT_0695,NA,SKIN AND SUBCUTANEOUS TISSUE DISORDERS,SKIN AND SUBCUTANEOUS TISSUE DISORDERS,NA,MILD,N,N,N,N,N,N,N,N,PROBABLE,,NOT RECOVERED/NOT RESOLVED,2,Y,,,Y,,,,DERMATOLOGIC EVENTS,
CDISCPILOT01,704,01-704-1332,Xanomeline High Dose,81,80,65-80,2,WHITE,1,M,Y,2013-12-09,2014-02-14,2013-12-10,,2,2014-02-24,78,77,DAY,RASH,RASH,NA,RASH,NA,HLT_0762,NA,HLGT_0198,NA,SKIN AND SUBCUTANEOUS TISSUE DISORDERS,SKIN AND SUBCUTANEOUS TISSUE DISORDERS,NA,MILD,N,N,N,N,N,N,N,N,NONE,,NOT RECOVERED/NOT RESOLVED,1,Y,Y,Y,Y,,,,DERMATOLOGIC EVENTS,Y
CDISCPILOT01,704,01-704-1332,Xanomeline High Dose,81,80,65-80,2,WHITE,1,M,Y,2013-12-09,2014-02-14,2014-01-18,,41,2014-02-24,78,38,DAY,PRURITUS,ITCHING,NA,PRURITUS,NA,HLT_0778,NA,HLGT_0695,NA,SKIN AND SUBCUTANEOUS TISSUE DISORDERS,SKIN AND SUBCUTANEOUS TISSUE DISORDERS,NA,MILD,N,N,N,N,N,N,N,N,PROBABLE,,NOT RECOVERED/NOT RESOLVED,2,Y,,,Y,,,,DERMATOLOGIC EVENTS,
CDISCPILOT01,704,01-704-1332,Xanomeline High Dose,81,80,65-80,2,WHITE,1,M,Y,2013-12-09,2014-02-14,2013-12-10,,2,2014-02-24,78,77,DAY,RASH,RASH,NA,RASH,NA,HLT_0762,NA,HLGT_0198,NA,SKIN AND SUBCUTANEOUS TISSUE DISORDERS,SKIN AND SUBCUTANEOUS TISSUE DISORDERS,NA,MODERATE,N,N,N,N,N,N,N,N,NONE,,NOT RECOVERED/NOT RESOLVED,3,Y,,,,,,,DERMATOLOGIC EVENTS,
CDISCPILOT01,704,01-704-1332,Xanomeline High Dose,81,80,65-80,2,WHITE,1,M,Y,2013-12-09,2014-02-14,2014-02-03,,57,NA,NA,NA,,BURNING SENSATION,BURNING SENSATION,NA,BURNING SENSATION,NA,HLT_0775,NA,HLGT_0456,NA,NERVOUS SYSTEM DISORDERS,NERVOUS SYSTEM DISORDERS,NA,MILD,N,N,N,N,N,N,N,N,PROBABLE,,NOT RECOVERED/NOT RESOLVED,4,Y,,Y,Y,,,,,
CDISCPILOT01,704,01-704-1332,Xanomeline High Dose,81,80,65-80,2,WHITE,1,M,Y,2013-12-09,2014-02-14,2013-12-10,,2,2014-02-24,78,77,DAY,RASH,RASH,NA,RASH,NA,HLT_0762,NA,HLGT_0198,NA,SKIN AND SUBCUTANEOUS TISSUE DISORDERS,SKIN AND SUBCUTANEOUS TISSUE DISORDERS,NA,MODERATE,N,N,N,N,N,N,N,N,NONE,,RECOVERED/RESOLVED,5,Y,,,,,,,DERMATOLOGIC EVENTS,
CDISCPILOT01,704,01-704-1332,Xanomeline High Dose,81,80,65-80,2,WHITE,1,M,Y,2013-12-09,2014-02-14,2014-01-18,,41,2014-02-24,78,38,DAY,PRURITUS,ITCHING,NA,PRURITUS,NA,HLT_0778,NA,HLGT_0695,NA,SKIN AND SUBCUTANEOUS TISSUE DISORDERS,SKIN AND SUBCUTANEOUS TISSUE DISORDERS,NA,MILD,N,N,N,N,N,N,N,N,PROBABLE,,RECOVERED/RESOLVED,6,Y,,,,,,,DERMATOLOGIC EVENTS,
CDISCPILOT01,704,01-704-1351,Placebo,0,70,65-80,2,WHITE,1,M,Y,2013-10-12,2014-04-18,2013-10-27,,16,2014-04-04,175,160,DAY,POLLAKIURIA,URINARY FREQUENCY,NA,POLLAKIURIA,NA,HLT_0393,NA,HLGT_0560,NA,RENAL AND URINARY DISORDERS,RENAL AND URINARY DISORDERS,NA,MILD,N,N,N,N,N,N,N,N,NONE,,NOT RECOVERED/NOT RESOLVED,1,Y,Y,Y,Y,,,,,
CDISCPILOT01,704,01-704-1351,Placebo,0,70,65-80,2,WHITE,1,M,Y,2013-10-12,2014-04-18,2013-10-27,,16,2014-04-04,175,160,DAY,FLATULENCE,GAS,NA,FLATULENCE,NA,HLT_0356,NA,HLGT_0504,NA,GASTROINTESTINAL DISORDERS,GASTROINTESTINAL DISORDERS,NA,MILD,N,N,N,N,N,N,N,N,NONE,,NOT RECOVERED/NOT RESOLVED,2,Y,,Y,Y,,,,,
CDISCPILOT01,704,01-704-1351,Placebo,0,70,65-80,2,WHITE,1,M,Y,2013-10-12,2014-04-18,2013-10-27,,16,2014-04-04,175,160,DAY,POLLAKIURIA,URINARY FREQUENCY,NA,POLLAKIURIA,NA,HLT_0393,NA,HLGT_0560,NA,RENAL AND URINARY DISORDERS,RENAL AND URINARY DISORDERS,NA,MILD,N,N,N,N,N,N,N,N,NONE,,RECOVERED/RESOLVED,3,Y,,,,,,,,
CDISCPILOT01,704,01-704-1351,Placebo,0,70,65-80,2,WHITE,1,M,Y,2013-10-12,2014-04-18,2013-10-27,,16,2014-04-04,175,160,DAY,FLATULENCE,GAS,NA,FLATULENCE,NA,HLT_0356,NA,HLGT_0504,NA,GASTROINTESTINAL DISORDERS,GASTROINTESTINAL DISORDERS,NA,MILD,N,N,N,N,N,N,N,N,NONE,,RECOVERED/RESOLVED,4,Y,,,,,,,,
CDISCPILOT01,704,01-704-1388,Placebo,0,81,>80,3,WHITE,1,M,Y,2012-12-07,2013-06-11,2012-08-23,,-106,NA,NA,NA,,HEADACHE,HEADACHE,NA,HEADACHE,NA,HLT_0064,NA,HLGT_0344,NA,NERVOUS SYSTEM DISORDERS,NERVOUS SYSTEM DISORDERS,NA,MODERATE,N,N,N,N,N,N,N,N,NONE,,NOT RECOVERED/NOT RESOLVED,1,N,,,,,,,,
CDISCPILOT01,704,01-704-1435,Placebo,0,74,65-80,2,WHITE,1,M,Y,2012-11-17,2013-01-09,2013-01-06,,51,NA,NA,NA,,PARKINSON'S DISEASE,DISEASE PARKINSON'S,NA,PARKINSON'S DISEASE,NA,HLT_0279,NA,HLGT_0313,NA,NERVOUS SYSTEM DISORDERS,NERVOUS SYSTEM DISORDERS,NA,MILD,N,N,N,N,N,N,N,N,NONE,,NOT RECOVERED/NOT RESOLVED,1,Y,Y,Y,Y,,,,,
CDISCPILOT01,704,01-704-1445,Placebo,0,75,65-80,2,WHITE,1,M,Y,2014-05-11,2014-11-01,2014-10-31,,174,2014-10-31,174,1,DAY,COMPLETED SUICIDE,SUICIDE,NA,COMPLETED SUICIDE,NA,HLT_0625,NA,HLGT_0013,NA,PSYCHIATRIC DISORDERS,PSYCHIATRIC DISORDERS,NA,SEVERE,N,N,N,N,Y,N,N,N,NONE,,FATAL,1,Y,Y,Y,Y,,,,,
CDISCPILOT01,705,01-705-1031,Xanomeline Low Dose,54,56,<65,1,WHITE,1,F,Y,2013-11-27,2014-05-11,2013-12-25,,29,NA,NA,NA,,RASH,RASH,NA,RASH,NA,HLT_0762,NA,HLGT_0198,NA,SKIN AND SUBCUTANEOUS TISSUE DISORDERS,SKIN AND SUBCUTANEOUS TISSUE DISORDERS,NA,MILD,N,N,N,N,N,N,N,N,POSSIBLE,,NOT RECOVERED/NOT RESOLVED,1,Y,Y,Y,Y,,,,DERMATOLOGIC EVENTS,Y
CDISCPILOT01,705,01-705-1059,Placebo,0,66,65-80,2,WHITE,1,F,Y,2013-08-05,2013-12-05,2013-11-02,,90,NA,NA,NA,,ERYTHEMA,ERYTHEMA,NA,ERYTHEMA,NA,HLT_0284,NA,HLGT_0192,NA,SKIN AND SUBCUTANEOUS TISSUE DISORDERS,SKIN AND SUBCUTANEOUS TISSUE DISORDERS,NA,MODERATE,N,N,N,N,N,N,N,N,PROBABLE,,NOT RECOVERED/NOT RESOLVED,1,Y,Y,Y,Y,,,,DERMATOLOGIC EVENTS,Y
CDISCPILOT01,705,01-705-1186,Placebo,0,84,>80,3,WHITE,1,F,Y,2014-01-08,2014-01-26,2014-01-26,,19,NA,NA,NA,,HYPERBILIRUBINAEMIA,HYPERBILIRUBINEMIA,NA,HYPERBILIRUBINAEMIA,NA,HLT_0478,NA,HLGT_0087,NA,HEPATOBILIARY DISORDERS,HEPATOBILIARY DISORDERS,NA,MODERATE,N,N,N,N,N,N,N,N,REMOTE,,NOT RECOVERED/NOT RESOLVED,1,Y,Y,Y,Y,,,,,
CDISCPILOT01,705,01-705-1199,Xanomeline Low Dose,54,87,>80,3,WHITE,1,M,Y,2013-09-16,2013-09-28,2013-09-17,,2,2013-09-29,14,13,DAY,DYSPEPSIA,PYROSIS,NA,DYSPEPSIA,NA,HLT_0244,NA,HLGT_0716,NA,GASTROINTESTINAL DISORDERS,GASTROINTESTINAL DISORDERS,NA,MODERATE,N,N,N,N,N,N,N,N,POSSIBLE,,NOT RECOVERED/NOT RESOLVED,1,Y,Y,Y,Y,,,,,
CDISCPILOT01,705,01-705-1199,Xanomeline Low Dose,54,87,>80,3,WHITE,1,M,Y,2013-09-16,2013-09-28,2013-09-17,,2,2013-09-29,14,13,DAY,DYSPEPSIA,PYROSIS,NA,DYSPEPSIA,NA,HLT_0244,NA,HLGT_0716,NA,GASTROINTESTINAL DISORDERS,GASTROINTESTINAL DISORDERS,NA,MODERATE,N,N,N,N,N,N,N,N,POSSIBLE,,RECOVERED/RESOLVED,2,Y,,,,,,,,
CDISCPILOT01,705,01-705-1280,Xanomeline High Dose,81,56,<65,1,WHITE,1,F,Y,2014-01-17,2014-07-25,2014-04-20,,94,NA,NA,NA,,PRURITUS,PRURITUS,NA,PRURITUS,NA,HLT_0778,NA,HLGT_0695,NA,SKIN AND SUBCUTANEOUS TISSUE DISORDERS,SKIN AND SUBCUTANEOUS TISSUE DISORDERS,NA,MILD,N,N,N,N,N,N,N,N,POSSIBLE,,NOT RECOVERED/NOT RESOLVED,1,Y,Y,Y,Y,,,,DERMATOLOGIC EVENTS,Y
CDISCPILOT01,705,01-705-1281,Xanomeline High Dose,81,73,65-80,2,BLACK OR AFRICAN AMERICAN,2,F,Y,2013-11-28,2014-02-27,2014-01-30,,64,NA,NA,NA,,PRURITUS,PRURITUS,NA,PRURITUS,NA,HLT_0778,NA,HLGT_0695,NA,SKIN AND SUBCUTANEOUS TISSUE DISORDERS,SKIN AND SUBCUTANEOUS TISSUE DISORDERS,NA,MILD,N,N,N,N,N,N,N,N,POSSIBLE,,NOT RECOVERED/NOT RESOLVED,1,Y,Y,Y,Y,,,,DERMATOLOGIC EVENTS,Y
CDISCPILOT01,705,01-705-1281,Xanomeline High Dose,81,73,65-80,2,BLACK OR AFRICAN AMERICAN,2,F,Y,2013-11-28,2014-02-27,2014-01-30,,64,NA,NA,NA,,EXCORIATION,ABRASIONS,NA,EXCORIATION,NA,HLT_0738,NA,HLGT_0511,NA,"INJURY, POISONING AND PROCEDURAL COMPLICATIONS","INJURY, POISONING AND PROCEDURAL COMPLICATIONS",NA,MODERATE,N,N,N,N,N,N,N,N,PROBABLE,,NOT RECOVERED/NOT RESOLVED,2,Y,,Y,Y,,,,,
CDISCPILOT01,705,01-705-1281,Xanomeline High Dose,81,73,65-80,2,BLACK OR AFRICAN AMERICAN,2,F,Y,2013-11-28,2014-02-27,2014-01-30,,64,NA,NA,NA,,PRURITUS,PRURITUS,NA,PRURITUS,NA,HLT_0778,NA,HLGT_0695,NA,SKIN AND SUBCUTANEOUS TISSUE DISORDERS,SKIN AND SUBCUTANEOUS TISSUE DISORDERS,NA,MODERATE,N,N,N,N,N,N,N,N,POSSIBLE,,NOT RECOVERED/NOT RESOLVED,3,Y,,,,,,,DERMATOLOGIC EVENTS,
CDISCPILOT01,705,01-705-1292,Xanomeline Low Dose,54,60,<65,1,BLACK OR AFRICAN AMERICAN,2,F,Y,2013-10-14,2014-05-13,2013-10-28,,15,NA,NA,NA,,PRURITUS,ITCHY,NA,PRURITUS,NA,HLT_0778,NA,HLGT_0695,NA,SKIN AND SUBCUTANEOUS TISSUE DISORDERS,SKIN AND SUBCUTANEOUS TISSUE DISORDERS,NA,MILD,N,N,N,N,N,N,N,N,PROBABLE,,NOT RECOVERED/NOT RESOLVED,1,Y,Y,Y,Y,,,,DERMATOLOGIC EVENTS,Y
CDISCPILOT01,705,01-705-1292,Xanomeline Low Dose,54,60,<65,1,BLACK OR AFRICAN AMERICAN,2,F,Y,2013-10-14,2014-05-13,2014-02-13,,123,NA,NA,NA,,ERYTHEMA,ERYTHEMA,NA,ERYTHEMA,NA,HLT_0284,NA,HLGT_0192,NA,SKIN AND SUBCUTANEOUS TISSUE DISORDERS,SKIN AND SUBCUTANEOUS TISSUE DISORDERS,NA,MODERATE,N,N,N,N,N,N,N,N,PROBABLE,,NOT RECOVERED/NOT RESOLVED,2,Y,,,Y,,,,DERMATOLOGIC EVENTS,
CDISCPILOT01,705,01-705-1303,Xanomeline High Dose,81,72,65-80,2,WHITE,1,M,Y,2013-12-16,2014-06-02,2014-02-05,,52,2014-03-03,78,27,DAY,PRURITUS,PRURITUS,NA,PRURITUS,NA,HLT_0778,NA,HLGT_0695,NA,SKIN AND SUBCUTANEOUS TISSUE DISORDERS,SKIN AND SUBCUTANEOUS TISSUE DISORDERS,NA,MILD,N,N,N,N,N,N,N,N,POSSIBLE,,NOT RECOVERED/NOT RESOLVED,1,Y,Y,Y,Y,,,,DERMATOLOGIC EVENTS,Y
CDISCPILOT01,705,01-705-1303,Xanomeline High Dose,81,72,65-80,2,WHITE,1,M,Y,2013-12-16,2014-06-02,2014-02-05,,52,2014-03-03,78,27,DAY,RASH,RASH,NA,RASH,NA,HLT_0762,NA,HLGT_0198,NA,SKIN AND SUBCUTANEOUS TISSUE DISORDERS,SKIN AND SUBCUTANEOUS TISSUE DISORDERS,NA,MILD,N,N,N,N,N,N,N,N,POSSIBLE,,NOT RECOVERED/NOT RESOLVED,2,Y,,,Y,,,,DERMATOLOGIC EVENTS,
CDISCPILOT01,705,01-705-1303,Xanomeline High Dose,81,72,65-80,2,WHITE,1,M,Y,2013-12-16,2014-06-02,2014-02-05,,52,2014-03-03,78,27,DAY,PRURITUS,PRURITUS,NA,PRURITUS,NA,HLT_0778,NA,HLGT_0695,NA,SKIN AND SUBCUTANEOUS TISSUE DISORDERS,SKIN AND SUBCUTANEOUS TISSUE DISORDERS,NA,MILD,N,N,N,N,N,N,N,N,POSSIBLE,,RECOVERED/RESOLVED,3,Y,,,,,,,DERMATOLOGIC EVENTS,
CDISCPILOT01,705,01-705-1303,Xanomeline High Dose,81,72,65-80,2,WHITE,1,M,Y,2013-12-16,2014-06-02,2014-02-05,,52,2014-03-03,78,27,DAY,RASH,RASH,NA,RASH,NA,HLT_0762,NA,HLGT_0198,NA,SKIN AND SUBCUTANEOUS TISSUE DISORDERS,SKIN AND SUBCUTANEOUS TISSUE DISORDERS,NA,MODERATE,N,N,N,N,N,N,N,N,POSSIBLE,,RECOVERED/RESOLVED,4,Y,,,,,,,DERMATOLOGIC EVENTS,
CDISCPILOT01,705,01-705-1310,Xanomeline High Dose,81,74,65-80,2,WHITE,1,F,Y,2013-11-02,2014-01-23,2013-11-14,,13,NA,NA,NA,,RASH PRURITIC,PRURITIC RASH,NA,RASH PRURITIC,NA,HLT_0127,NA,HLGT_0753,NA,SKIN AND SUBCUTANEOUS TISSUE DISORDERS,SKIN AND SUBCUTANEOUS TISSUE DISORDERS,NA,MODERATE,N,N,N,N,N,N,N,N,POSSIBLE,,NOT RECOVERED/NOT RESOLVED,1,Y,Y,Y,Y,,,,DERMATOLOGIC EVENTS,Y
CDISCPILOT01,705,01-705-1310,Xanomeline High Dose,81,74,65-80,2,WHITE,1,F,Y,2013-11-02,2014-01-23,2014-01-09,,69,NA,NA,NA,,WOUND HAEMORRHAGE,WOUND BLEEDING,NA,WOUND HAEMORRHAGE,NA,HLT_0154,NA,HLGT_0162,NA,VASCULAR DISORDERS,VASCULAR DISORDERS,NA,MODERATE,N,N,N,N,N,N,N,N,POSSIBLE,,NOT RECOVERED/NOT RESOLVED,2,Y,,Y,Y,,,,,
CDISCPILOT01,705,01-705-1349,Placebo,0,86,>80,3,WHITE,1,F,Y,2013-03-10,2013-09-08,2013-04-08,,30,2013-04-08,30,1,DAY,NAUSEA,NAUSEA,NA,NAUSEA,NA,HLT_0742,NA,HLGT_0326,NA,GASTROINTESTINAL DISORDERS,GASTROINTESTINAL DISORDERS,NA,MILD,N,N,N,N,N,N,N,N,REMOTE,,RECOVERED/RESOLVED,1,Y,Y,Y,Y,,,,,
CDISCPILOT01,705,01-705-1349,Placebo,0,86,>80,3,WHITE,1,F,Y,2013-03-10,2013-09-08,2013-04-11,,33,2013-04-11,33,1,DAY,VOMITING,VOMITING,NA,VOMITING,NA,HLT_0016,NA,HLGT_0350,NA,GASTROINTESTINAL DISORDERS,GASTROINTESTINAL DISORDERS,NA,MILD,N,N,N,N,N,N,N,N,REMOTE,,RECOVERED/RESOLVED,2,Y,,,Y,,,,,
CDISCPILOT01,705,01-705-1349,Placebo,0,86,>80,3,WHITE,1,F,Y,2013-03-10,2013-09-08,2013-08-25,,169,NA,NA,NA,,VENTRICULAR HYPERTROPHY,LEFT VENTRICULAR HYPERTROPHY,NA,VENTRICULAR HYPERTROPHY,NA,HLT_0104,NA,HLGT_0259,NA,CARDIAC DISORDERS,CARDIAC DISORDERS,NA,MILD,N,N,N,N,N,N,N,N,REMOTE,,NOT RECOVERED/NOT RESOLVED,3,Y,,Y,Y,,,,,
CDISCPILOT01,705,01-705-1349,Placebo,0,86,>80,3,WHITE,1,F,Y,2013-03-10,2013-09-08,2013-08-25,,169,NA,NA,NA,,ELECTROCARDIOGRAM ST SEGMENT DEPRESSION,ST SEGMENT DEPRESSED,NA,ELECTROCARDIOGRAM ST SEGMENT DEPRESSION,NA,HLT_0610,NA,HLGT_0220,NA,INVESTIGATIONS,INVESTIGATIONS,NA,MILD,N,N,N,N,N,N,N,N,REMOTE,,NOT RECOVERED/NOT RESOLVED,4,Y,,Y,Y,,,,,
CDISCPILOT01,705,01-705-1393,Xanomeline Low Dose,54,84,>80,3,WHITE,1,F,Y,2012-09-07,2013-02-01,2012-09-19,,13,2012-09-24,18,6,DAY,ABDOMINAL PAIN,ABDOMINAL CRAMPS,NA,ABDOMINAL PAIN,NA,HLT_0217,NA,HLGT_0419,NA,GASTROINTESTINAL DISORDERS,GASTROINTESTINAL DISORDERS,NA,MILD,N,N,N,N,N,N,N,N,REMOTE,,RECOVERED/RESOLVED,1,Y,Y,Y,Y,,,,,
CDISCPILOT01,705,01-705-1393,Xanomeline Low Dose,54,84,>80,3,WHITE,1,F,Y,2012-09-07,2013-02-01,2011-12-05,,-277,2013-02-20,167,444,DAY,PRURITUS,PRURITUS,NA,PRURITUS,NA,HLT_0778,NA,HLGT_0695,NA,SKIN AND SUBCUTANEOUS TISSUE DISORDERS,SKIN AND SUBCUTANEOUS TISSUE DISORDERS,NA,MILD,N,N,N,N,N,N,N,N,PROBABLE,,NOT RECOVERED/NOT RESOLVED,2,N,,,,,,,DERMATOLOGIC EVENTS,
CDISCPILOT01,705,01-705-1393,Xanomeline Low Dose,54,84,>80,3,WHITE,1,F,Y,2012-09-07,2013-02-01,2013-01-21,,137,2013-01-24,140,4,DAY,COLON CANCER,COLON CANCER,NA,COLON CANCER,NA,HLT_0597,NA,HLGT_0339,NA,"NEOPLASMS BENIGN, MALIGNANT AND UNSPECIFIED (INCL CYSTS AND POLYPS)","NEOPLASMS BENIGN, MALIGNANT AND UNSPECIFIED (INCL CYSTS AND POLYPS)",NA,SEVERE,N,Y,N,N,N,Y,N,N,NONE,,RECOVERED/RESOLVED,3,Y,,Y,Y,,,,,
CDISCPILOT01,705,01-705-1393,Xanomeline Low Dose,54,84,>80,3,WHITE,1,F,Y,2012-09-07,2013-02-01,2011-12-05,,-277,2013-02-20,167,444,DAY,PRURITUS,PRURITUS,NA,PRURITUS,NA,HLT_0778,NA,HLGT_0695,NA,SKIN AND SUBCUTANEOUS TISSUE DISORDERS,SKIN AND SUBCUTANEOUS TISSUE DISORDERS,NA,MILD,N,N,N,N,N,N,N,N,PROBABLE,,RECOVERED/RESOLVED,4,N,,,,,,,DERMATOLOGIC EVENTS,
CDISCPILOT01,705,01-705-1431,Xanomeline Low Dose,54,68,65-80,2,WHITE,1,F,Y,2013-06-23,2013-12-19,2013-06-22,,-1,NA,NA,NA,,RASH ERYTHEMATOUS,ERYTHEMATOUS RASH,NA,RASH ERYTHEMATOUS,NA,HLT_0336,NA,HLGT_0701,NA,SKIN AND SUBCUTANEOUS TISSUE DISORDERS,SKIN AND SUBCUTANEOUS TISSUE DISORDERS,NA,MILD,N,N,N,N,N,N,N,N,PROBABLE,,NOT RECOVERED/NOT RESOLVED,1,N,,,,,,,DERMATOLOGIC EVENTS,
CDISCPILOT01,705,01-705-1431,Xanomeline Low Dose,54,68,65-80,2,WHITE,1,F,Y,2013-06-23,2013-12-19,2013-07-04,,12,2013-07-06,14,3,DAY,ANXIETY,FEELING ANXIOUS,NA,ANXIETY,NA,HLT_0559,NA,HLGT_0570,NA,PSYCHIATRIC DISORDERS,PSYCHIATRIC DISORDERS,NA,MILD,N,N,N,N,N,N,N,N,POSSIBLE,,RECOVERED/RESOLVED,2,Y,Y,Y,Y,,,,,
CDISCPILOT01,706,01-706-1041,Placebo,0,64,<65,1,BLACK OR AFRICAN AMERICAN,2,F,Y,2013-12-31,2014-07-28,2012-05-01,D,-609,NA,NA,NA,,ANXIETY,ANXIETY ATTACK,NA,ANXIETY,NA,HLT_0559,NA,HLGT_0570,NA,PSYCHIATRIC DISORDERS,PSYCHIATRIC DISORDERS,NA,MODERATE,N,N,N,N,N,N,N,N,REMOTE,,NOT RECOVERED/NOT RESOLVED,1,N,,,,,,,,
CDISCPILOT01,706,01-706-1041,Placebo,0,64,<65,1,BLACK OR AFRICAN AMERICAN,2,F,Y,2013-12-31,2014-07-28,2014-01-07,,8,2014-01-08,9,2,DAY,DIARRHOEA,DIARRHEA,NA,DIARRHOEA,NA,HLT_0148,NA,HLGT_0588,NA,GASTROINTESTINAL DISORDERS,GASTROINTESTINAL DISORDERS,NA,MILD,N,N,N,N,N,N,N,N,REMOTE,,RECOVERED/RESOLVED,2,Y,Y,Y,Y,,,,,
CDISCPILOT01,706,01-706-1041,Placebo,0,64,<65,1,BLACK OR AFRICAN AMERICAN,2,F,Y,2013-12-31,2014-07-28,2014-01-14,,15,2014-01-28,29,15,DAY,EXCORIATION,ABRASIONS,NA,EXCORIATION,NA,HLT_0738,NA,HLGT_0511,NA,"INJURY, POISONING AND PROCEDURAL COMPLICATIONS","INJURY, POISONING AND PROCEDURAL COMPLICATIONS",NA,MILD,N,N,N,N,N,N,N,N,NONE,,NOT RECOVERED/NOT RESOLVED,3,Y,,Y,Y,,,,,
CDISCPILOT01,706,01-706-1041,Placebo,0,64,<65,1,BLACK OR AFRICAN AMERICAN,2,F,Y,2013-12-31,2014-07-28,2014-01-15,,16,2014-07-29,211,196,DAY,IRRITABILITY,IRRITABILITY,NA,IRRITABILITY,NA,HLT_0627,NA,HLGT_0461,NA,PSYCHIATRIC DISORDERS,PSYCHIATRIC DISORDERS,NA,MODERATE,N,N,N,N,N,N,N,N,POSSIBLE,,NOT RECOVERED/NOT RESOLVED,4,Y,,Y,Y,,,,,
CDISCPILOT01,706,01-706-1041,Placebo,0,64,<65,1,BLACK OR AFRICAN AMERICAN,2,F,Y,2013-12-31,2014-07-28,2014-01-14,,15,2014-01-28,29,15,DAY,EXCORIATION,ABRASIONS,NA,EXCORIATION,NA,HLT_0738,NA,HLGT_0511,NA,"INJURY, POISONING AND PROCEDURAL COMPLICATIONS","INJURY, POISONING AND PROCEDURAL COMPLICATIONS",NA,MILD,N,N,N,N,N,N,N,N,NONE,,RECOVERED/RESOLVED,5,Y,,,,,,,,
CDISCPILOT01,706,01-706-1041,Placebo,0,64,<65,1,BLACK OR AFRICAN AMERICAN,2,F,Y,2013-12-31,2014-07-28,2014-03-04,,64,2014-07-29,211,148,DAY,PRURITUS,ITCHING,NA,PRURITUS,NA,HLT_0778,NA,HLGT_0695,NA,SKIN AND SUBCUTANEOUS TISSUE DISORDERS,SKIN AND SUBCUTANEOUS TISSUE DISORDERS,NA,MILD,N,N,N,N,N,N,N,N,POSSIBLE,,NOT RECOVERED/NOT RESOLVED,6,Y,,Y,Y,,,,DERMATOLOGIC EVENTS,Y
CDISCPILOT01,706,01-706-1041,Placebo,0,64,<65,1,BLACK OR AFRICAN AMERICAN,2,F,Y,2013-12-31,2014-07-28,2012-05-01,D,-609,NA,NA,NA,,ANXIETY,ANXIETY ATTACK,NA,ANXIETY,NA,HLT_0559,NA,HLGT_0570,NA,PSYCHIATRIC DISORDERS,PSYCHIATRIC DISORDERS,NA,MILD,N,N,N,N,N,N,N,N,REMOTE,,NOT RECOVERED/NOT RESOLVED,7,N,,,,,,,,
CDISCPILOT01,706,01-706-1041,Placebo,0,64,<65,1,BLACK OR AFRICAN AMERICAN,2,F,Y,2013-12-31,2014-07-28,2014-01-15,,16,2014-07-29,211,196,DAY,IRRITABILITY,IRRITABILITY,NA,IRRITABILITY,NA,HLT_0627,NA,HLGT_0461,NA,PSYCHIATRIC DISORDERS,PSYCHIATRIC DISORDERS,NA,MODERATE,N,N,N,N,N,N,N,N,POSSIBLE,,RECOVERED/RESOLVED,8,Y,,,,,,,,
CDISCPILOT01,706,01-706-1041,Placebo,0,64,<65,1,BLACK OR AFRICAN AMERICAN,2,F,Y,2013-12-31,2014-07-28,2014-03-04,,64,2014-07-29,211,148,DAY,PRURITUS,ITCHING,NA,PRURITUS,NA,HLT_0778,NA,HLGT_0695,NA,SKIN AND SUBCUTANEOUS TISSUE DISORDERS,SKIN AND SUBCUTANEOUS TISSUE DISORDERS,NA,MILD,N,N,N,N,N,N,N,N,POSSIBLE,,RECOVERED/RESOLVED,9,Y,,,,,,,DERMATOLOGIC EVENTS,
CDISCPILOT01,706,01-706-1049,Xanomeline High Dose,81,60,<65,1,WHITE,1,F,Y,2013-05-14,2013-06-18,2013-06-03,,21,2013-06-03,21,1,DAY,SYNCOPE,FAINTING,NA,SYNCOPE,NA,HLT_0440,NA,HLGT_0310,NA,NERVOUS SYSTEM DISORDERS,NERVOUS SYSTEM DISORDERS,NA,MODERATE,N,N,N,N,N,N,N,N,POSSIBLE,,RECOVERED/RESOLVED,1,Y,Y,Y,Y,,,,,
CDISCPILOT01,706,01-706-1049,Xanomeline High Dose,81,60,<65,1,WHITE,1,F,Y,2013-05-14,2013-06-18,2013-06-18,,36,2013-06-18,36,1,DAY,SYNCOPE,SYNCOPAL ATTACK,NA,SYNCOPE,NA,HLT_0440,NA,HLGT_0310,NA,NERVOUS SYSTEM DISORDERS,NERVOUS SYSTEM DISORDERS,NA,SEVERE,N,N,N,N,N,Y,N,N,PROBABLE,,RECOVERED/RESOLVED,2,Y,,,,,,,,
CDISCPILOT01,706,01-706-1384,Xanomeline Low Dose,54,74,65-80,2,WHITE,1,F,Y,2012-09-15,2012-09-24,2012-09-15,,1,2012-09-29,15,15,DAY,ERYTHEMA,ERYTHEMA,NA,ERYTHEMA,NA,HLT_0284,NA,HLGT_0192,NA,SKIN AND SUBCUTANEOUS TISSUE DISORDERS,SKIN AND SUBCUTANEOUS TISSUE DISORDERS,NA,MODERATE,N,N,N,N,N,N,N,N,NONE,,NOT RECOVERED/NOT RESOLVED,1,Y,Y,Y,Y,,,,DERMATOLOGIC EVENTS,Y
CDISCPILOT01,706,01-706-1384,Xanomeline Low Dose,54,74,65-80,2,WHITE,1,F,Y,2012-09-15,2012-09-24,2012-09-15,,1,2012-09-29,15,15,DAY,PRURITUS,PRURITIS,NA,PRURITUS,NA,HLT_0778,NA,HLGT_0695,NA,SKIN AND SUBCUTANEOUS TISSUE DISORDERS,SKIN AND SUBCUTANEOUS TISSUE DISORDERS,NA,MODERATE,N,N,N,N,N,N,N,N,NONE,,NOT RECOVERED/NOT RESOLVED,2,Y,,,Y,,,,DERMATOLOGIC EVENTS,
CDISCPILOT01,706,01-706-1384,Xanomeline Low Dose,54,74,65-80,2,WHITE,1,F,Y,2012-09-15,2012-09-24,2012-09-15,,1,2012-09-29,15,15,DAY,EXCORIATION,ABRASIONS,NA,EXCORIATION,NA,HLT_0738,NA,HLGT_0511,NA,"INJURY, POISONING AND PROCEDURAL COMPLICATIONS","INJURY, POISONING AND PROCEDURAL COMPLICATIONS",NA,MODERATE,N,N,N,N,N,N,N,N,NONE,,NOT RECOVERED/NOT RESOLVED,3,Y,,Y,Y,,,,,
CDISCPILOT01,706,01-706-1384,Xanomeline Low Dose,54,74,65-80,2,WHITE,1,F,Y,2012-09-15,2012-09-24,2012-09-23,,9,2012-09-29,15,7,DAY,ERYTHEMA,ERYTHEMA,NA,ERYTHEMA,NA,HLT_0284,NA,HLGT_0192,NA,SKIN AND SUBCUTANEOUS TISSUE DISORDERS,SKIN AND SUBCUTANEOUS TISSUE DISORDERS,NA,MODERATE,N,N,N,N,N,N,N,N,PROBABLE,,NOT RECOVERED/NOT RESOLVED,4,Y,,,,,,,DERMATOLOGIC EVENTS,
CDISCPILOT01,706,01-706-1384,Xanomeline Low Dose,54,74,65-80,2,WHITE,1,F,Y,2012-09-15,2012-09-24,2012-09-23,,9,2012-09-29,15,7,DAY,PRURITUS,PRURITIS,NA,PRURITUS,NA,HLT_0778,NA,HLGT_0695,NA,SKIN AND SUBCUTANEOUS TISSUE DISORDERS,SKIN AND SUBCUTANEOUS TISSUE DISORDERS,NA,MODERATE,N,N,N,N,N,N,N,N,PROBABLE,,NOT RECOVERED/NOT RESOLVED,5,Y,,,,,,,DERMATOLOGIC EVENTS,
CDISCPILOT01,706,01-706-1384,Xanomeline Low Dose,54,74,65-80,2,WHITE,1,F,Y,2012-09-15,2012-09-24,2012-09-15,,1,2012-09-29,15,15,DAY,ERYTHEMA,ERYTHEMA,NA,ERYTHEMA,NA,HLT_0284,NA,HLGT_0192,NA,SKIN AND SUBCUTANEOUS TISSUE DISORDERS,SKIN AND SUBCUTANEOUS TISSUE DISORDERS,NA,MODERATE,N,N,N,N,N,N,N,N,NONE,,RECOVERED/RESOLVED,6,Y,,,,,,,DERMATOLOGIC EVENTS,
CDISCPILOT01,706,01-706-1384,Xanomeline Low Dose,54,74,65-80,2,WHITE,1,F,Y,2012-09-15,2012-09-24,2012-09-15,,1,2012-09-29,15,15,DAY,PRURITUS,PRURITIS,NA,PRURITUS,NA,HLT_0778,NA,HLGT_0695,NA,SKIN AND SUBCUTANEOUS TISSUE DISORDERS,SKIN AND SUBCUTANEOUS TISSUE DISORDERS,NA,MODERATE,N,N,N,N,N,N,N,N,NONE,,RECOVERED/RESOLVED,7,Y,,,,,,,DERMATOLOGIC EVENTS,
CDISCPILOT01,706,01-706-1384,Xanomeline Low Dose,54,74,65-80,2,WHITE,1,F,Y,2012-09-15,2012-09-24,2012-09-15,,1,2012-09-29,15,15,DAY,EXCORIATION,ABRASIONS,NA,EXCORIATION,NA,HLT_0738,NA,HLGT_0511,NA,"INJURY, POISONING AND PROCEDURAL COMPLICATIONS","INJURY, POISONING AND PROCEDURAL COMPLICATIONS",NA,MODERATE,N,N,N,N,N,N,N,N,NONE,,RECOVERED/RESOLVED,8,Y,,,,,,,,
CDISCPILOT01,706,01-706-1384,Xanomeline Low Dose,54,74,65-80,2,WHITE,1,F,Y,2012-09-15,2012-09-24,2012-09-23,,9,2012-09-29,15,7,DAY,ERYTHEMA,ERYTHEMA,NA,ERYTHEMA,NA,HLT_0284,NA,HLGT_0192,NA,SKIN AND SUBCUTANEOUS TISSUE DISORDERS,SKIN AND SUBCUTANEOUS TISSUE DISORDERS,NA,MODERATE,N,N,N,N,N,N,N,N,PROBABLE,,RECOVERED/RESOLVED,9,Y,,,,,,,DERMATOLOGIC EVENTS,
CDISCPILOT01,706,01-706-1384,Xanomeline Low Dose,54,74,65-80,2,WHITE,1,F,Y,2012-09-15,2012-09-24,2012-09-23,,9,2012-09-29,15,7,DAY,PRURITUS,PRURITIS,NA,PRURITUS,NA,HLT_0778,NA,HLGT_0695,NA,SKIN AND SUBCUTANEOUS TISSUE DISORDERS,SKIN AND SUBCUTANEOUS TISSUE DISORDERS,NA,MODERATE,N,N,N,N,N,N,N,N,PROBABLE,,RECOVERED/RESOLVED,10,Y,,,,,,,DERMATOLOGIC EVENTS,
CDISCPILOT01,707,01-707-1206,Placebo,0,65,65-80,2,WHITE,1,M,Y,2013-10-28,2014-04-26,2013-11-25,,29,2013-12-23,57,29,DAY,SINUS ARRHYTHMIA,SINUS ARRHYTHMIA,NA,SINUS ARRHYTHMIA,NA,HLT_0094,NA,HLGT_0630,NA,CARDIAC DISORDERS,CARDIAC DISORDERS,NA,MILD,N,N,N,N,N,N,N,N,POSSIBLE,,NOT RECOVERED/NOT RESOLVED,1,Y,Y,Y,Y,,,,,
CDISCPILOT01,707,01-707-1206,Placebo,0,65,65-80,2,WHITE,1,M,Y,2013-10-28,2014-04-26,2013-11-26,,30,2013-12-09,43,14,DAY,BLOOD CREATINE PHOSPHOKINASE INCREASED,CPK INCREASE,NA,BLOOD CREATINE PHOSPHOKINASE INCREASED,NA,HLT_0404,NA,HLGT_0008,NA,INVESTIGATIONS,INVESTIGATIONS,NA,MODERATE,N,N,N,N,N,N,N,N,POSSIBLE,,NOT RECOVERED/NOT RESOLVED,2,Y,,Y,Y,,,,,
CDISCPILOT01,707,01-707-1206,Placebo,0,65,65-80,2,WHITE,1,M,Y,2013-10-28,2014-04-26,2013-12-03,,37,2013-12-10,44,8,DAY,POSTNASAL DRIP,POSTNASAL DRIP,NA,POSTNASAL DRIP,NA,HLT_0172,NA,HLGT_0032,NA,"RESPIRATORY, THORACIC AND MEDIASTINAL DISORDERS","RESPIRATORY, THORACIC AND MEDIASTINAL DISORDERS",NA,MILD,N,N,N,N,N,N,N,N,NONE,,NOT RECOVERED/NOT RESOLVED,3,Y,,Y,Y,,,,,
CDISCPILOT01,707,01-707-1206,Placebo,0,65,65-80,2,WHITE,1,M,Y,2013-10-28,2014-04-26,2013-11-26,,30,2013-12-09,43,14,DAY,BLOOD CREATINE PHOSPHOKINASE INCREASED,CPK INCREASE,NA,BLOOD CREATINE PHOSPHOKINASE INCREASED,NA,HLT_0404,NA,HLGT_0008,NA,INVESTIGATIONS,INVESTIGATIONS,NA,MODERATE,N,N,N,N,N,N,N,N,POSSIBLE,,RECOVERED/RESOLVED,4,Y,,,,,,,,
CDISCPILOT01,707,01-707-1206,Placebo,0,65,65-80,2,WHITE,1,M,Y,2013-10-28,2014-04-26,2013-12-03,,37,2013-12-10,44,8,DAY,POSTNASAL DRIP,POSTNASAL DRIP,NA,POSTNASAL DRIP,NA,HLT_0172,NA,HLGT_0032,NA,"RESPIRATORY, THORACIC AND MEDIASTINAL DISORDERS","RESPIRATORY, THORACIC AND MEDIASTINAL DISORDERS",NA,MILD,N,N,N,N,N,N,N,N,NONE,,RECOVERED/RESOLVED,5,Y,,,,,,,,
CDISCPILOT01,707,01-707-1206,Placebo,0,65,65-80,2,WHITE,1,M,Y,2013-10-28,2014-04-26,2013-11-25,,29,2013-12-23,57,29,DAY,SINUS ARRHYTHMIA,SINUS ARRHYTHMIA,NA,SINUS ARRHYTHMIA,NA,HLT_0094,NA,HLGT_0630,NA,CARDIAC DISORDERS,CARDIAC DISORDERS,NA,MILD,N,N,N,N,N,N,N,N,POSSIBLE,,RECOVERED/RESOLVED,6,Y,,,,,,,,
CDISCPILOT01,707,01-707-1206,Placebo,0,65,65-80,2,WHITE,1,M,Y,2013-10-28,2014-04-26,2014-02-08,,104,2014-02-22,118,15,DAY,CONJUNCTIVITIS,CONJUNCTIVITIS,NA,CONJUNCTIVITIS,NA,HLT_0584,NA,HLGT_0335,NA,EYE DISORDERS,EYE DISORDERS,NA,MODERATE,N,N,N,N,N,N,N,N,REMOTE,,NOT RECOVERED/NOT RESOLVED,7,Y,,Y,Y,,,,,
CDISCPILOT01,707,01-707-1206,Placebo,0,65,65-80,2,WHITE,1,M,Y,2013-10-28,2014-04-26,2014-02-08,,104,2014-02-22,118,15,DAY,CONJUNCTIVITIS,CONJUNCTIVITIS,NA,CONJUNCTIVITIS,NA,HLT_0584,NA,HLGT_0335,NA,EYE DISORDERS,EYE DISORDERS,NA,MODERATE,N,N,N,N,N,N,N,N,REMOTE,,RECOVERED/RESOLVED,8,Y,,,,,,,,
CDISCPILOT01,708,01-708-1019,Xanomeline Low Dose,54,68,65-80,2,WHITE,1,M,Y,2013-12-20,2014-01-01,2013-12-31,,12,2013-12-31,12,1,DAY,HEADACHE,FRONTAL HEADACHE,NA,HEADACHE,NA,HLT_0064,NA,HLGT_0344,NA,NERVOUS SYSTEM DISORDERS,NERVOUS SYSTEM DISORDERS,NA,SEVERE,N,N,N,N,N,N,N,N,POSSIBLE,,RECOVERED/RESOLVED,1,Y,Y,Y,Y,,,,,
CDISCPILOT01,708,01-708-1019,Xanomeline Low Dose,54,68,65-80,2,WHITE,1,M,Y,2013-12-20,2014-01-01,2014-01-01,,13,2014-01-01,13,1,DAY,STUPOR,STUPOR,NA,STUPOR,NA,HLT_0595,NA,HLGT_0513,NA,NERVOUS SYSTEM DISORDERS,NERVOUS SYSTEM DISORDERS,NA,SEVERE,N,N,N,N,N,N,N,N,POSSIBLE,,RECOVERED/RESOLVED,2,Y,,,Y,,,,,
CDISCPILOT01,708,01-708-1019,Xanomeline Low Dose,54,68,65-80,2,WHITE,1,M,Y,2013-12-20,2014-01-01,2014-01-01,,13,2014-01-01,13,1,DAY,TRANSIENT ISCHAEMIC ATTACK,TRANSIENT ISCHEMIC ATTACKS,NA,TRANSIENT ISCHAEMIC ATTACK,NA,HLT_0041,NA,HLGT_0433,NA,NERVOUS SYSTEM DISORDERS,NERVOUS SYSTEM DISORDERS,NA,SEVERE,N,N,N,N,N,N,N,N,POSSIBLE,,RECOVERED/RESOLVED,3,Y,,,Y,,,,,
CDISCPILOT01,708,01-708-1019,Xanomeline Low Dose,54,68,65-80,2,WHITE,1,M,Y,2013-12-20,2014-01-01,2014-01-01,,13,2014-01-01,13,1,DAY,VISION BLURRED,BLURRED VISION,NA,VISION BLURRED,NA,HLT_0120,NA,HLGT_0598,NA,EYE DISORDERS,EYE DISORDERS,NA,MILD,N,N,N,N,N,N,N,N,POSSIBLE,,RECOVERED/RESOLVED,4,Y,,Y,Y,,,,,
CDISCPILOT01,708,01-708-1019,Xanomeline Low Dose,54,68,65-80,2,WHITE,1,M,Y,2013-12-20,2014-01-01,2014-01-01,,13,2014-01-01,13,1,DAY,DIZZINESS,DIZZINESS,NA,DIZZINESS,NA,HLT_0619,NA,HLGT_0751,NA,NERVOUS SYSTEM DISORDERS,NERVOUS SYSTEM DISORDERS,NA,MILD,N,N,N,N,N,N,N,N,POSSIBLE,,RECOVERED/RESOLVED,5,Y,,,Y,,,,,
CDISCPILOT01,708,01-708-1032,Xanomeline Low Dose,54,62,<65,1,WHITE,1,M,Y,2013-02-09,2013-03-01,2013-02-26,,18,2013-03-09,29,12,DAY,APPLICATION SITE VESICLES,APPLICATION SITE BLISTER,NA,APPLICATION SITE VESICLES,NA,HLT_0180,NA,HLGT_0576,NA,GENERAL DISORDERS AND ADMINISTRATION SITE CONDITIONS,GENERAL DISORDERS AND ADMINISTRATION SITE CONDITIONS,NA,MODERATE,N,N,N,N,N,N,N,N,PROBABLE,,RECOVERED/RESOLVED,1,Y,Y,Y,Y,,,,DERMATOLOGIC EVENTS,Y
CDISCPILOT01,708,01-708-1084,Xanomeline Low Dose,54,73,65-80,2,WHITE,1,F,Y,2013-05-09,2013-11-11,2013-05-23,,15,2013-05-23,15,1,DAY,DIZZINESS,DIZZINESS,NA,DIZZINESS,NA,HLT_0619,NA,HLGT_0751,NA,NERVOUS SYSTEM DISORDERS,NERVOUS SYSTEM DISORDERS,NA,MILD,N,N,N,N,N,N,N,N,POSSIBLE,,NOT RECOVERED/NOT RESOLVED,1,Y,Y,Y,Y,,,,,
CDISCPILOT01,708,01-708-1084,Xanomeline Low Dose,54,73,65-80,2,WHITE,1,F,Y,2013-05-09,2013-11-11,2013-05-23,,15,2013-05-23,15,1,DAY,DIZZINESS,DIZZINESS,NA,DIZZINESS,NA,HLT_0619,NA,HLGT_0751,NA,NERVOUS SYSTEM DISORDERS,NERVOUS SYSTEM DISORDERS,NA,MILD,N,N,N,N,N,N,N,N,POSSIBLE,,RECOVERED/RESOLVED,2,Y,,,,,,,,
CDISCPILOT01,708,01-708-1084,Xanomeline Low Dose,54,73,65-80,2,WHITE,1,F,Y,2013-05-09,2013-11-11,2013-06-09,,32,2013-06-09,32,1,DAY,MYOCARDIAL INFARCTION,MYOCARDIAL INFARCTION,NA,MYOCARDIAL INFARCTION,NA,HLT_0649,NA,HLGT_0688,NA,CARDIAC DISORDERS,CARDIAC DISORDERS,NA,MILD,N,N,N,N,N,N,N,N,REMOTE,,NOT RECOVERED/NOT RESOLVED,3,Y,,Y,Y,,,,,
CDISCPILOT01,708,01-708-1084,Xanomeline Low Dose,54,73,65-80,2,WHITE,1,F,Y,2013-05-09,2013-11-11,2013-06-09,,32,2013-06-09,32,1,DAY,MYOCARDIAL INFARCTION,MYOCARDIAL INFARCTION,NA,MYOCARDIAL INFARCTION,NA,HLT_0649,NA,HLGT_0688,NA,CARDIAC DISORDERS,CARDIAC DISORDERS,NA,MILD,N,N,N,N,N,N,N,N,REMOTE,,RECOVERED/RESOLVED,4,Y,,,,,,,,
CDISCPILOT01,708,01-708-1084,Xanomeline Low Dose,54,73,65-80,2,WHITE,1,F,Y,2013-05-09,2013-11-11,2013-06-23,,46,2013-06-23,46,1,DAY,SINUS BRADYCARDIA,SINUS BRADYCARDIA,NA,SINUS BRADYCARDIA,NA,HLT_0644,NA,HLGT_0500,NA,CARDIAC DISORDERS,CARDIAC DISORDERS,NA,MILD,N,N,N,N,N,N,N,N,REMOTE,,NOT RECOVERED/NOT RESOLVED,5,Y,,,Y,,,,,
CDISCPILOT01,708,01-708-1084,Xanomeline Low Dose,54,73,65-80,2,WHITE,1,F,Y,2013-05-09,2013-11-11,2013-06-23,,46,2013-06-23,46,1,DAY,SINUS BRADYCARDIA,SINUS BRADYCARDIA,NA,SINUS BRADYCARDIA,NA,HLT_0644,NA,HLGT_0500,NA,CARDIAC DISORDERS,CARDIAC DISORDERS,NA,MILD,N,N,N,N,N,N,N,N,REMOTE,,RECOVERED/RESOLVED,6,Y,,,,,,,,
CDISCPILOT01,708,01-708-1087,Placebo,0,74,65-80,2,WHITE,1,F,Y,2012-10-22,2013-04-28,2013-01-19,,90,2013-01-19,90,1,DAY,HEART RATE IRREGULAR,HEARTBEATS IRREGULAR,NA,HEART RATE IRREGULAR,NA,HLT_0765,NA,HLGT_0140,NA,INVESTIGATIONS,INVESTIGATIONS,NA,MILD,N,N,N,N,N,N,N,N,POSSIBLE,,NOT RECOVERED/NOT RESOLVED,1,Y,Y,Y,Y,,,,,
CDISCPILOT01,708,01-708-1087,Placebo,0,74,65-80,2,WHITE,1,F,Y,2012-10-22,2013-04-28,2013-01-19,,90,2013-01-19,90,1,DAY,HEART RATE IRREGULAR,HEARTBEATS IRREGULAR,NA,HEART RATE IRREGULAR,NA,HLT_0765,NA,HLGT_0140,NA,INVESTIGATIONS,INVESTIGATIONS,NA,MILD,N,N,N,N,N,N,N,N,POSSIBLE,,RECOVERED/RESOLVED,2,Y,,,,,,,,
CDISCPILOT01,708,01-708-1087,Placebo,0,74,65-80,2,WHITE,1,F,Y,2012-10-22,2013-04-28,2013-02-04,,106,2013-02-08,110,5,DAY,DIZZINESS,DIZZINESS,NA,DIZZINESS,NA,HLT_0619,NA,HLGT_0751,NA,NERVOUS SYSTEM DISORDERS,NERVOUS SYSTEM DISORDERS,NA,MILD,N,N,N,N,N,N,N,N,POSSIBLE,,RECOVERED/RESOLVED,3,Y,,Y,Y,,,,,
CDISCPILOT01,708,01-708-1087,Placebo,0,74,65-80,2,WHITE,1,F,Y,2012-10-22,2013-04-28,2013-02-16,,118,NA,NA,NA,,HEADACHE,HEADACHE,NA,HEADACHE,NA,HLT_0064,NA,HLGT_0344,NA,NERVOUS SYSTEM DISORDERS,NERVOUS SYSTEM DISORDERS,NA,MILD,N,N,N,N,N,N,N,N,NONE,,NOT RECOVERED/NOT RESOLVED,4,Y,,,Y,,,,,
CDISCPILOT01,708,01-708-1087,Placebo,0,74,65-80,2,WHITE,1,F,Y,2012-10-22,2013-04-28,2013-03-16,,146,2013-03-16,146,1,DAY,HEART RATE IRREGULAR,HEARTBEATS IRREGULAR,NA,HEART RATE IRREGULAR,NA,HLT_0765,NA,HLGT_0140,NA,INVESTIGATIONS,INVESTIGATIONS,NA,MILD,N,N,N,N,N,N,N,N,POSSIBLE,,NOT RECOVERED/NOT RESOLVED,5,Y,,,,,,,,
CDISCPILOT01,708,01-708-1087,Placebo,0,74,65-80,2,WHITE,1,F,Y,2012-10-22,2013-04-28,2013-03-16,,146,2013-03-16,146,1,DAY,HEART RATE IRREGULAR,HEARTBEATS IRREGULAR,NA,HEART RATE IRREGULAR,NA,HLT_0765,NA,HLGT_0140,NA,INVESTIGATIONS,INVESTIGATIONS,NA,MILD,N,N,N,N,N,N,N,N,POSSIBLE,,RECOVERED/RESOLVED,6,Y,,,,,,,,
CDISCPILOT01,708,01-708-1158,Placebo,0,81,>80,3,WHITE,1,F,Y,2014-02-08,2014-03-21,2014-02-25,,18,NA,NA,NA,,AGITATION,AGITATION,NA,AGITATION,NA,HLT_0140,NA,HLGT_0170,NA,PSYCHIATRIC DISORDERS,PSYCHIATRIC DISORDERS,NA,MILD,N,N,N,N,N,N,N,N,REMOTE,,NOT RECOVERED/NOT RESOLVED,1,Y,Y,Y,Y,,,,,
CDISCPILOT01,708,01-708-1158,Placebo,0,81,>80,3,WHITE,1,F,Y,2014-02-08,2014-03-21,2014-03-22,,43,2014-03-22,43,1,DAY,ERYTHEMA,ERYTHEMA,NA,ERYTHEMA,NA,HLT_0284,NA,HLGT_0192,NA,SKIN AND SUBCUTANEOUS TISSUE DISORDERS,SKIN AND SUBCUTANEOUS TISSUE DISORDERS,NA,MILD,N,N,N,N,N,N,N,N,PROBABLE,,RECOVERED/RESOLVED,2,Y,,Y,Y,,,,DERMATOLOGIC EVENTS,Y
CDISCPILOT01,708,01-708-1178,Xanomeline High Dose,81,77,65-80,2,BLACK OR AFRICAN AMERICAN,2,F,Y,2013-12-29,2014-04-06,2013-12-19,,-10,NA,NA,NA,,FLANK PAIN,FLANK PAIN,NA,FLANK PAIN,NA,HLT_0484,NA,HLGT_0543,NA,MUSCULOSKELETAL AND CONNECTIVE TISSUE DISORDERS,MUSCULOSKELETAL AND CONNECTIVE TISSUE DISORDERS,NA,MILD,N,N,N,N,N,N,N,N,NONE,,NOT RECOVERED/NOT RESOLVED,1,N,,,,,,,,
CDISCPILOT01,708,01-708-1178,Xanomeline High Dose,81,77,65-80,2,BLACK OR AFRICAN AMERICAN,2,F,Y,2013-12-29,2014-04-06,2014-03-01,,63,2014-03-08,70,8,DAY,NASOPHARYNGITIS,COLD,NA,NASOPHARYNGITIS,NA,HLT_0036,NA,HLGT_0709,NA,INFECTIONS AND INFESTATIONS,INFECTIONS AND INFESTATIONS,NA,MILD,N,N,N,N,N,N,N,N,NONE,,RECOVERED/RESOLVED,2,Y,Y,Y,Y,,,,,
CDISCPILOT01,708,01-708-1178,Xanomeline High Dose,81,77,65-80,2,BLACK OR AFRICAN AMERICAN,2,F,Y,2013-12-29,2014-04-06,2014-03-09,,71,2014-04-06,99,29,DAY,APPLICATION SITE PRURITUS,APPLICATION SITE ITCHING,NA,APPLICATION SITE PRURITUS,NA,HLT_0317,NA,HLGT_0338,NA,GENERAL DISORDERS AND ADMINISTRATION SITE CONDITIONS,GENERAL DISORDERS AND ADMINISTRATION SITE CONDITIONS,NA,MILD,N,N,N,N,N,N,N,N,PROBABLE,,NOT RECOVERED/NOT RESOLVED,3,Y,,Y,Y,,,,DERMATOLOGIC EVENTS,Y
CDISCPILOT01,708,01-708-1178,Xanomeline High Dose,81,77,65-80,2,BLACK OR AFRICAN AMERICAN,2,F,Y,2013-12-29,2014-04-06,2014-03-09,,71,NA,NA,NA,,VENTRICULAR SEPTAL DEFECT,VENTRICULAR SEPTAL DEFECT,NA,VENTRICULAR SEPTAL DEFECT,NA,HLT_0589,NA,HLGT_0747,NA,"CONGENITAL, FAMILIAL AND GENETIC DISORDERS","CONGENITAL, FAMILIAL AND GENETIC DISORDERS",NA,MILD,N,N,N,N,N,N,N,N,NONE,,NOT RECOVERED/NOT RESOLVED,4,Y,,Y,Y,,,,,
CDISCPILOT01,708,01-708-1178,Xanomeline High Dose,81,77,65-80,2,BLACK OR AFRICAN AMERICAN,2,F,Y,2013-12-29,2014-04-06,2014-03-09,,71,2014-04-06,99,29,DAY,APPLICATION SITE PRURITUS,APPLICATION SITE ITCHING,NA,APPLICATION SITE PRURITUS,NA,HLT_0317,NA,HLGT_0338,NA,GENERAL DISORDERS AND ADMINISTRATION SITE CONDITIONS,GENERAL DISORDERS AND ADMINISTRATION SITE CONDITIONS,NA,MILD,N,N,N,N,N,N,N,N,PROBABLE,,RECOVERED/RESOLVED,5,Y,,,,,,,DERMATOLOGIC EVENTS,
CDISCPILOT01,708,01-708-1178,Xanomeline High Dose,81,77,65-80,2,BLACK OR AFRICAN AMERICAN,2,F,Y,2013-12-29,2014-04-06,2014-03-24,,86,2014-03-26,88,3,DAY,DIZZINESS,LIGHT-HEADED,NA,DIZZINESS,NA,HLT_0619,NA,HLGT_0751,NA,NERVOUS SYSTEM DISORDERS,NERVOUS SYSTEM DISORDERS,NA,SEVERE,N,N,N,N,N,Y,N,N,POSSIBLE,,RECOVERED/RESOLVED,6,Y,,Y,Y,,,,,
CDISCPILOT01,708,01-708-1178,Xanomeline High Dose,81,77,65-80,2,BLACK OR AFRICAN AMERICAN,2,F,Y,2013-12-29,2014-04-06,2014-03-24,,86,2014-03-26,88,3,DAY,ATRIAL FIBRILLATION,ATRIAL FIBRILLATION,NA,ATRIAL FIBRILLATION,NA,HLT_0365,NA,HLGT_0012,NA,CARDIAC DISORDERS,CARDIAC DISORDERS,NA,SEVERE,N,N,N,N,N,Y,N,N,POSSIBLE,,RECOVERED/RESOLVED,7,Y,,Y,Y,,,,,
CDISCPILOT01,708,01-708-1178,Xanomeline High Dose,81,77,65-80,2,BLACK OR AFRICAN AMERICAN,2,F,Y,2013-12-29,2014-04-06,2014-03-24,,86,2014-03-28,90,5,DAY,CYSTITIS,BLADDER INFECTION,NA,CYSTITIS,NA,HLT_0739,NA,HLGT_0129,NA,INFECTIONS AND INFESTATIONS,INFECTIONS AND INFESTATIONS,NA,MILD,N,N,N,N,N,N,N,N,REMOTE,,RECOVERED/RESOLVED,8,Y,,,Y,,,,,
CDISCPILOT01,708,01-708-1178,Xanomeline High Dose,81,77,65-80,2,BLACK OR AFRICAN AMERICAN,2,F,Y,2013-12-29,2014-04-06,2014-03-24,,86,2014-03-24,86,1,DAY,ALCOHOL USE,ALCOHOL USE,NA,ALCOHOL USE,NA,HLT_0138,NA,HLGT_0182,NA,SOCIAL CIRCUMSTANCES,SOCIAL CIRCUMSTANCES,NA,MILD,N,N,N,N,N,N,N,N,NONE,,RECOVERED/RESOLVED,9,Y,,Y,Y,,,,,
CDISCPILOT01,708,01-708-1213,Xanomeline High Dose,81,76,65-80,2,WHITE,1,F,Y,2013-02-09,2013-02-22,2013-02-22,,14,2013-02-22,14,1,DAY,ATRIAL FIBRILLATION,ATRIAL FIBRILLATION,NA,ATRIAL FIBRILLATION,NA,HLT_0365,NA,HLGT_0012,NA,CARDIAC DISORDERS,CARDIAC DISORDERS,NA,MILD,N,N,N,N,N,N,N,N,POSSIBLE,,NOT RECOVERED/NOT RESOLVED,1,Y,Y,Y,Y,,,,,
CDISCPILOT01,708,01-708-1213,Xanomeline High Dose,81,76,65-80,2,WHITE,1,F,Y,2013-02-09,2013-02-22,2013-02-22,,14,2013-02-22,14,1,DAY,ATRIAL FIBRILLATION,ATRIAL FIBRILLATION,NA,ATRIAL FIBRILLATION,NA,HLT_0365,NA,HLGT_0012,NA,CARDIAC DISORDERS,CARDIAC DISORDERS,NA,MILD,N,N,N,N,N,N,N,N,POSSIBLE,,RECOVERED/RESOLVED,2,Y,,,,,,,,
CDISCPILOT01,708,01-708-1216,Xanomeline High Dose,81,78,65-80,2,WHITE,1,M,Y,2012-10-24,2012-11-29,2012-11-06,,14,NA,NA,NA,,APPLICATION SITE PRURITUS,APPLICATION SITE ITCHING,NA,APPLICATION SITE PRURITUS,NA,HLT_0317,NA,HLGT_0338,NA,GENERAL DISORDERS AND ADMINISTRATION SITE CONDITIONS,GENERAL DISORDERS AND ADMINISTRATION SITE CONDITIONS,NA,MILD,N,N,N,N,N,N,N,N,PROBABLE,,NOT RECOVERED/NOT RESOLVED,1,Y,Y,Y,Y,,,,DERMATOLOGIC EVENTS,Y
CDISCPILOT01,708,01-708-1216,Xanomeline High Dose,81,78,65-80,2,WHITE,1,M,Y,2012-10-24,2012-11-29,2012-11-06,,14,2012-12-13,51,38,DAY,APPLICATION SITE ERYTHEMA,APPLICATION SITE REDNESS,NA,APPLICATION SITE ERYTHEMA,NA,HLT_0617,NA,HLGT_0152,NA,GENERAL DISORDERS AND ADMINISTRATION SITE CONDITIONS,GENERAL DISORDERS AND ADMINISTRATION SITE CONDITIONS,NA,MILD,N,N,N,N,N,N,N,N,PROBABLE,,NOT RECOVERED/NOT RESOLVED,2,Y,,,Y,,,,DERMATOLOGIC EVENTS,
CDISCPILOT01,708,01-708-1216,Xanomeline High Dose,81,78,65-80,2,WHITE,1,M,Y,2012-10-24,2012-11-29,2012-11-22,,30,NA,NA,NA,,APPLICATION SITE SWELLING,APPLICATION SITE SWELLING,NA,APPLICATION SITE SWELLING,NA,HLT_0105,NA,HLGT_0236,NA,GENERAL DISORDERS AND ADMINISTRATION SITE CONDITIONS,GENERAL DISORDERS AND ADMINISTRATION SITE CONDITIONS,NA,MILD,N,N,N,N,N,N,N,N,PROBABLE,,NOT RECOVERED/NOT RESOLVED,3,Y,,,Y,,,,DERMATOLOGIC EVENTS,
CDISCPILOT01,708,01-708-1216,Xanomeline High Dose,81,78,65-80,2,WHITE,1,M,Y,2012-10-24,2012-11-29,2012-11-06,,14,2012-12-13,51,38,DAY,APPLICATION SITE ERYTHEMA,APPLICATION SITE REDNESS,NA,APPLICATION SITE ERYTHEMA,NA,HLT_0617,NA,HLGT_0152,NA,GENERAL DISORDERS AND ADMINISTRATION SITE CONDITIONS,GENERAL DISORDERS AND ADMINISTRATION SITE CONDITIONS,NA,MILD,N,N,N,N,N,N,N,N,PROBABLE,,RECOVERED/RESOLVED,4,Y,,,,,,,DERMATOLOGIC EVENTS,
CDISCPILOT01,708,01-708-1253,Placebo,0,61,<65,1,WHITE,1,M,Y,2013-05-07,2013-11-05,2013-05-06,,-1,2013-05-16,10,11,DAY,COUGH,COUGH,NA,COUGH,NA,HLT_0701,NA,HLGT_0280,NA,"RESPIRATORY, THORACIC AND MEDIASTINAL DISORDERS","RESPIRATORY, THORACIC AND MEDIASTINAL DISORDERS",NA,MILD,N,N,N,N,N,N,N,N,NONE,,NOT RECOVERED/NOT RESOLVED,1,N,,,,,,,,
CDISCPILOT01,708,01-708-1253,Placebo,0,61,<65,1,WHITE,1,M,Y,2013-05-07,2013-11-05,2013-05-06,,-1,2013-05-16,10,11,DAY,CONJUNCTIVITIS,CONJUNCTIVITIS,NA,CONJUNCTIVITIS,NA,HLT_0584,NA,HLGT_0335,NA,EYE DISORDERS,EYE DISORDERS,NA,MILD,N,N,N,N,N,N,N,N,NONE,,NOT RECOVERED/NOT RESOLVED,2,N,,,,,,,,
CDISCPILOT01,708,01-708-1253,Placebo,0,61,<65,1,WHITE,1,M,Y,2013-05-07,2013-11-05,2013-05-07,,1,2013-05-10,4,4,DAY,HEART RATE INCREASED,HEART RATE INCREASED,NA,HEART RATE INCREASED,NA,HLT_0646,NA,HLGT_0673,NA,INVESTIGATIONS,INVESTIGATIONS,NA,MILD,N,N,N,N,N,N,N,N,POSSIBLE,,NOT RECOVERED/NOT RESOLVED,3,Y,Y,Y,Y,,,,,
CDISCPILOT01,708,01-708-1253,Placebo,0,61,<65,1,WHITE,1,M,Y,2013-05-07,2013-11-05,2013-05-06,,-1,2013-05-16,10,11,DAY,COUGH,COUGH,NA,COUGH,NA,HLT_0701,NA,HLGT_0280,NA,"RESPIRATORY, THORACIC AND MEDIASTINAL DISORDERS","RESPIRATORY, THORACIC AND MEDIASTINAL DISORDERS",NA,MILD,N,N,N,N,N,N,N,N,NONE,,RECOVERED/RESOLVED,4,N,,,,,,,,
CDISCPILOT01,708,01-708-1253,Placebo,0,61,<65,1,WHITE,1,M,Y,2013-05-07,2013-11-05,2013-05-06,,-1,2013-05-16,10,11,DAY,CONJUNCTIVITIS,CONJUNCTIVITIS,NA,CONJUNCTIVITIS,NA,HLT_0584,NA,HLGT_0335,NA,EYE DISORDERS,EYE DISORDERS,NA,MILD,N,N,N,N,N,N,N,N,NONE,,RECOVERED/RESOLVED,5,N,,,,,,,,
CDISCPILOT01,708,01-708-1253,Placebo,0,61,<65,1,WHITE,1,M,Y,2013-05-07,2013-11-05,2013-05-07,,1,2013-05-10,4,4,DAY,HEART RATE INCREASED,HEART RATE INCREASED,NA,HEART RATE INCREASED,NA,HLT_0646,NA,HLGT_0673,NA,INVESTIGATIONS,INVESTIGATIONS,NA,MILD,N,N,N,N,N,N,N,N,POSSIBLE,,RECOVERED/RESOLVED,6,Y,,,,,,,,
CDISCPILOT01,708,01-708-1253,Placebo,0,61,<65,1,WHITE,1,M,Y,2013-05-07,2013-11-05,2013-06-07,,32,2013-06-07,32,1,DAY,DIZZINESS,DIZZINESS,NA,DIZZINESS,NA,HLT_0619,NA,HLGT_0751,NA,NERVOUS SYSTEM DISORDERS,NERVOUS SYSTEM DISORDERS,NA,MILD,N,N,N,N,N,N,N,N,POSSIBLE,,NOT RECOVERED/NOT RESOLVED,7,Y,,Y,Y,,,,,
CDISCPILOT01,708,01-708-1253,Placebo,0,61,<65,1,WHITE,1,M,Y,2013-05-07,2013-11-05,2013-06-07,,32,2013-06-07,32,1,DAY,DIZZINESS,DIZZINESS,NA,DIZZINESS,NA,HLT_0619,NA,HLGT_0751,NA,NERVOUS SYSTEM DISORDERS,NERVOUS SYSTEM DISORDERS,NA,MILD,N,N,N,N,N,N,N,N,POSSIBLE,,RECOVERED/RESOLVED,8,Y,,,,,,,,
CDISCPILOT01,708,01-708-1272,Xanomeline Low Dose,54,82,>80,3,WHITE,1,M,Y,2013-02-06,2013-03-22,2013-02-11,,6,2013-02-11,6,1,DAY,DIARRHOEA,DIARRHEA,NA,DIARRHOEA,NA,HLT_0148,NA,HLGT_0588,NA,GASTROINTESTINAL DISORDERS,GASTROINTESTINAL DISORDERS,NA,MILD,N,N,N,N,N,N,N,N,NONE,,RECOVERED/RESOLVED,1,Y,Y,Y,Y,,,,,
CDISCPILOT01,708,01-708-1272,Xanomeline Low Dose,54,82,>80,3,WHITE,1,M,Y,2013-02-06,2013-03-22,2013-02-18,,13,2013-02-18,13,1,DAY,MUSCLE SPASMS,LEG CRAMPS,NA,MUSCLE SPASMS,NA,HLT_0078,NA,HLGT_0750,NA,MUSCULOSKELETAL AND CONNECTIVE TISSUE DISORDERS,MUSCULOSKELETAL AND CONNECTIVE TISSUE DISORDERS,NA,SEVERE,N,N,N,N,N,N,N,N,NONE,,RECOVERED/RESOLVED,2,Y,,Y,Y,,,,,
CDISCPILOT01,708,01-708-1272,Xanomeline Low Dose,54,82,>80,3,WHITE,1,M,Y,2013-02-06,2013-03-22,2013-02-21,,16,2013-03-20,43,28,DAY,VENTRICULAR EXTRASYSTOLES,VENTRICULAR BIGEMINY,NA,VENTRICULAR EXTRASYSTOLES,NA,HLT_0050,NA,HLGT_0594,NA,CARDIAC DISORDERS,CARDIAC DISORDERS,NA,MILD,N,N,N,N,N,N,N,N,REMOTE,,NOT RECOVERED/NOT RESOLVED,3,Y,,Y,Y,,,,,
CDISCPILOT01,708,01-708-1272,Xanomeline Low Dose,54,82,>80,3,WHITE,1,M,Y,2013-02-06,2013-03-22,2013-02-27,,22,2013-02-27,22,1,DAY,APPLICATION SITE DERMATITIS,APPLICATION SITE RASH,NA,APPLICATION SITE DERMATITIS,NA,HLT_0343,NA,HLGT_0241,NA,GENERAL DISORDERS AND ADMINISTRATION SITE CONDITIONS,GENERAL DISORDERS AND ADMINISTRATION SITE CONDITIONS,NA,MILD,N,N,N,N,N,N,N,N,PROBABLE,,RECOVERED/RESOLVED,4,Y,,Y,Y,,,,DERMATOLOGIC EVENTS,Y
CDISCPILOT01,708,01-708-1272,Xanomeline Low Dose,54,82,>80,3,WHITE,1,M,Y,2013-02-06,2013-03-22,2013-03-01,,24,2013-03-07,30,7,DAY,COUGH,COUGH,NA,COUGH,NA,HLT_0701,NA,HLGT_0280,NA,"RESPIRATORY, THORACIC AND MEDIASTINAL DISORDERS","RESPIRATORY, THORACIC AND MEDIASTINAL DISORDERS",NA,MILD,N,N,N,N,N,N,N,N,NONE,,NOT RECOVERED/NOT RESOLVED,5,Y,,Y,Y,,,,,
CDISCPILOT01,708,01-708-1272,Xanomeline Low Dose,54,82,>80,3,WHITE,1,M,Y,2013-02-06,2013-03-22,2013-03-01,,24,2013-03-07,30,7,DAY,NASOPHARYNGITIS,COLD,NA,NASOPHARYNGITIS,NA,HLT_0036,NA,HLGT_0709,NA,INFECTIONS AND INFESTATIONS,INFECTIONS AND INFESTATIONS,NA,MILD,N,N,N,N,N,N,N,N,NONE,,NOT RECOVERED/NOT RESOLVED,6,Y,,Y,Y,,,,,
CDISCPILOT01,708,01-708-1272,Xanomeline Low Dose,54,82,>80,3,WHITE,1,M,Y,2013-02-06,2013-03-22,2013-03-07,,30,2013-03-07,30,1,DAY,HEADACHE,HEADACHE,NA,HEADACHE,NA,HLT_0064,NA,HLGT_0344,NA,NERVOUS SYSTEM DISORDERS,NERVOUS SYSTEM DISORDERS,NA,MILD,N,N,N,N,N,N,N,N,NONE,,NOT RECOVERED/NOT RESOLVED,7,Y,,Y,Y,,,,,
CDISCPILOT01,708,01-708-1272,Xanomeline Low Dose,54,82,>80,3,WHITE,1,M,Y,2013-02-06,2013-03-22,2013-03-01,,24,2013-03-07,30,7,DAY,COUGH,COUGH,NA,COUGH,NA,HLT_0701,NA,HLGT_0280,NA,"RESPIRATORY, THORACIC AND MEDIASTINAL DISORDERS","RESPIRATORY, THORACIC AND MEDIASTINAL DISORDERS",NA,MILD,N,N,N,N,N,N,N,N,NONE,,RECOVERED/RESOLVED,8,Y,,,,,,,,
CDISCPILOT01,708,01-708-1272,Xanomeline Low Dose,54,82,>80,3,WHITE,1,M,Y,2013-02-06,2013-03-22,2013-03-01,,24,2013-03-07,30,7,DAY,NASOPHARYNGITIS,COLD,NA,NASOPHARYNGITIS,NA,HLT_0036,NA,HLGT_0709,NA,INFECTIONS AND INFESTATIONS,INFECTIONS AND INFESTATIONS,NA,MILD,N,N,N,N,N,N,N,N,NONE,,RECOVERED/RESOLVED,9,Y,,,,,,,,
CDISCPILOT01,708,01-708-1272,Xanomeline Low Dose,54,82,>80,3,WHITE,1,M,Y,2013-02-06,2013-03-22,2013-03-07,,30,2013-03-07,30,1,DAY,HEADACHE,HEADACHE,NA,HEADACHE,NA,HLT_0064,NA,HLGT_0344,NA,NERVOUS SYSTEM DISORDERS,NERVOUS SYSTEM DISORDERS,NA,MILD,N,N,N,N,N,N,N,N,NONE,,RECOVERED/RESOLVED,10,Y,,,,,,,,
CDISCPILOT01,708,01-708-1272,Xanomeline Low Dose,54,82,>80,3,WHITE,1,M,Y,2013-02-06,2013-03-22,2013-03-19,,42,2013-03-19,42,1,DAY,HOT FLUSH,HOT FLASHES,NA,HOT FLUSH,NA,HLT_0737,NA,HLGT_0773,NA,VASCULAR DISORDERS,VASCULAR DISORDERS,NA,MILD,N,N,N,N,N,N,N,N,NONE,,RECOVERED/RESOLVED,11,Y,,Y,Y,,,,,
CDISCPILOT01,708,01-708-1272,Xanomeline Low Dose,54,82,>80,3,WHITE,1,M,Y,2013-02-06,2013-03-22,2013-02-21,,16,2013-03-20,43,28,DAY,VENTRICULAR EXTRASYSTOLES,VENTRICULAR BIGEMINY,NA,VENTRICULAR EXTRASYSTOLES,NA,HLT_0050,NA,HLGT_0594,NA,CARDIAC DISORDERS,CARDIAC DISORDERS,NA,MILD,N,N,N,N,N,N,N,N,REMOTE,,RECOVERED/RESOLVED,12,Y,,,,,,,,
CDISCPILOT01,708,01-708-1286,Placebo,0,80,65-80,2,BLACK OR AFRICAN AMERICAN,2,F,Y,2013-09-10,2014-03-08,2013-09-12,,3,NA,NA,NA,,APPLICATION SITE PRURITUS,APPLICATION SITE ITCHING,NA,APPLICATION SITE PRURITUS,NA,HLT_0317,NA,HLGT_0338,NA,GENERAL DISORDERS AND ADMINISTRATION SITE CONDITIONS,GENERAL DISORDERS AND ADMINISTRATION SITE CONDITIONS,NA,MILD,N,N,N,N,N,N,N,N,PROBABLE,,NOT RECOVERED/NOT RESOLVED,1,Y,Y,Y,Y,,,,DERMATOLOGIC EVENTS,Y
CDISCPILOT01,708,01-708-1286,Placebo,0,80,65-80,2,BLACK OR AFRICAN AMERICAN,2,F,Y,2013-09-10,2014-03-08,2013-09-23,,14,NA,NA,NA,,MYOCARDIAL INFARCTION,INFERIOR MYOCARDIAL INFARCTION,NA,MYOCARDIAL INFARCTION,NA,HLT_0649,NA,HLGT_0688,NA,CARDIAC DISORDERS,CARDIAC DISORDERS,NA,MILD,N,N,N,N,N,N,N,N,REMOTE,,NOT RECOVERED/NOT RESOLVED,2,Y,,Y,Y,,,,,
CDISCPILOT01,708,01-708-1286,Placebo,0,80,65-80,2,BLACK OR AFRICAN AMERICAN,2,F,Y,2013-09-10,2014-03-08,2014-02-18,,162,2014-02-18,162,1,DAY,ABDOMINAL PAIN,ABDOMINAL PAIN,NA,ABDOMINAL PAIN,NA,HLT_0217,NA,HLGT_0419,NA,GASTROINTESTINAL DISORDERS,GASTROINTESTINAL DISORDERS,NA,MILD,N,N,N,N,N,N,N,N,REMOTE,,RECOVERED/RESOLVED,3,Y,,Y,Y,,,,,
CDISCPILOT01,708,01-708-1286,Placebo,0,80,65-80,2,BLACK OR AFRICAN AMERICAN,2,F,Y,2013-09-10,2014-03-08,2014-02-18,,162,2014-02-18,162,1,DAY,CONSTIPATION,CONSTIPATION,NA,CONSTIPATION,NA,HLT_0402,NA,HLGT_0635,NA,GASTROINTESTINAL DISORDERS,GASTROINTESTINAL DISORDERS,NA,MILD,N,N,N,N,N,N,N,N,REMOTE,,RECOVERED/RESOLVED,4,Y,,,Y,,,,,
CDISCPILOT01,708,01-708-1296,Placebo,0,57,<65,1,BLACK OR AFRICAN AMERICAN,2,M,Y,2013-06-14,2013-12-12,2013-06-27,,14,2013-06-27,14,1,DAY,ATRIAL HYPERTROPHY,LEFT ATRIAL HYPERTROPHY,NA,ATRIAL HYPERTROPHY,NA,HLT_0271,NA,HLGT_0067,NA,CARDIAC DISORDERS,CARDIAC DISORDERS,NA,MILD,N,N,N,N,N,N,N,N,REMOTE,,NOT RECOVERED/NOT RESOLVED,1,Y,Y,Y,Y,,,,,
CDISCPILOT01,708,01-708-1296,Placebo,0,57,<65,1,BLACK OR AFRICAN AMERICAN,2,M,Y,2013-06-14,2013-12-12,2013-06-27,,14,2013-06-27,14,1,DAY,ATRIAL HYPERTROPHY,LEFT ATRIAL HYPERTROPHY,NA,ATRIAL HYPERTROPHY,NA,HLT_0271,NA,HLGT_0067,NA,CARDIAC DISORDERS,CARDIAC DISORDERS,NA,MILD,N,N,N,N,N,N,N,N,REMOTE,,RECOVERED/RESOLVED,2,Y,,,,,,,,
CDISCPILOT01,708,01-708-1296,Placebo,0,57,<65,1,BLACK OR AFRICAN AMERICAN,2,M,Y,2013-06-14,2013-12-12,2013-09-04,,83,2013-09-18,97,15,DAY,APPLICATION SITE PRURITUS,APPLICATION SITE ITCHING,NA,APPLICATION SITE PRURITUS,NA,HLT_0317,NA,HLGT_0338,NA,GENERAL DISORDERS AND ADMINISTRATION SITE CONDITIONS,GENERAL DISORDERS AND ADMINISTRATION SITE CONDITIONS,NA,MILD,N,N,N,N,N,N,N,N,PROBABLE,,NOT RECOVERED/NOT RESOLVED,3,Y,,Y,Y,,,,DERMATOLOGIC EVENTS,Y
CDISCPILOT01,708,01-708-1296,Placebo,0,57,<65,1,BLACK OR AFRICAN AMERICAN,2,M,Y,2013-06-14,2013-12-12,2013-09-04,,83,2013-09-18,97,15,DAY,APPLICATION SITE PRURITUS,APPLICATION SITE ITCHING,NA,APPLICATION SITE PRURITUS,NA,HLT_0317,NA,HLGT_0338,NA,GENERAL DISORDERS AND ADMINISTRATION SITE CONDITIONS,GENERAL DISORDERS AND ADMINISTRATION SITE CONDITIONS,NA,MILD,N,N,N,N,N,N,N,N,PROBABLE,,RECOVERED/RESOLVED,4,Y,,,,,,,DERMATOLOGIC EVENTS,
CDISCPILOT01,708,01-708-1296,Placebo,0,57,<65,1,BLACK OR AFRICAN AMERICAN,2,M,Y,2013-06-14,2013-12-12,2013-10-04,,113,2013-10-30,139,27,DAY,APPLICATION SITE VESICLES,APPLICATION SITE BLISTER,NA,APPLICATION SITE VESICLES,NA,HLT_0180,NA,HLGT_0576,NA,GENERAL DISORDERS AND ADMINISTRATION SITE CONDITIONS,GENERAL DISORDERS AND ADMINISTRATION SITE CONDITIONS,NA,MILD,N,N,N,N,N,N,N,N,PROBABLE,,NOT RECOVERED/NOT RESOLVED,5,Y,,,Y,,,,DERMATOLOGIC EVENTS,
CDISCPILOT01,708,01-708-1296,Placebo,0,57,<65,1,BLACK OR AFRICAN AMERICAN,2,M,Y,2013-06-14,2013-12-12,2013-10-04,,113,2013-10-30,139,27,DAY,APPLICATION SITE VESICLES,APPLICATION SITE BLISTER,NA,APPLICATION SITE VESICLES,NA,HLT_0180,NA,HLGT_0576,NA,GENERAL DISORDERS AND ADMINISTRATION SITE CONDITIONS,GENERAL DISORDERS AND ADMINISTRATION SITE CONDITIONS,NA,MILD,N,N,N,N,N,N,N,N,PROBABLE,,RECOVERED/RESOLVED,6,Y,,,,,,,DERMATOLOGIC EVENTS,
CDISCPILOT01,708,01-708-1296,Placebo,0,57,<65,1,BLACK OR AFRICAN AMERICAN,2,M,Y,2013-06-14,2013-12-12,2013-12-07,,177,2013-12-07,177,1,DAY,PAIN IN EXTREMITY,PAIN IN THIGH,NA,PAIN IN EXTREMITY,NA,HLT_0213,NA,HLGT_0764,NA,MUSCULOSKELETAL AND CONNECTIVE TISSUE DISORDERS,MUSCULOSKELETAL AND CONNECTIVE TISSUE DISORDERS,NA,MILD,N,N,N,N,N,N,N,N,REMOTE,,RECOVERED/RESOLVED,7,Y,,Y,Y,,,,,
CDISCPILOT01,708,01-708-1297,Xanomeline Low Dose,54,61,<65,1,WHITE,1,M,Y,2013-01-25,2013-05-03,2013-04-02,,68,NA,NA,NA,,APPLICATION SITE PRURITUS,APPLICATION SITE ITCHING,NA,APPLICATION SITE PRURITUS,NA,HLT_0317,NA,HLGT_0338,NA,GENERAL DISORDERS AND ADMINISTRATION SITE CONDITIONS,GENERAL DISORDERS AND ADMINISTRATION SITE CONDITIONS,NA,MILD,N,N,N,N,N,N,N,N,PROBABLE,,NOT RECOVERED/NOT RESOLVED,1,Y,Y,Y,Y,,,,DERMATOLOGIC EVENTS,Y
CDISCPILOT01,708,01-708-1297,Xanomeline Low Dose,54,61,<65,1,WHITE,1,M,Y,2013-01-25,2013-05-03,2013-04-02,,68,NA,NA,NA,,APPLICATION SITE SWELLING,APPLICATION SITE SWELLING,NA,APPLICATION SITE SWELLING,NA,HLT_0105,NA,HLGT_0236,NA,GENERAL DISORDERS AND ADMINISTRATION SITE CONDITIONS,GENERAL DISORDERS AND ADMINISTRATION SITE CONDITIONS,NA,MILD,N,N,N,N,N,N,N,N,PROBABLE,,NOT RECOVERED/NOT RESOLVED,2,Y,,,Y,,,,DERMATOLOGIC EVENTS,
CDISCPILOT01,708,01-708-1297,Xanomeline Low Dose,54,61,<65,1,WHITE,1,M,Y,2013-01-25,2013-05-03,2013-05-08,,104,NA,NA,NA,,SINUS BRADYCARDIA,SINUS BRADYCARDIA,NA,SINUS BRADYCARDIA,NA,HLT_0644,NA,HLGT_0500,NA,CARDIAC DISORDERS,CARDIAC DISORDERS,NA,MILD,N,N,N,N,N,N,N,N,REMOTE,,NOT RECOVERED/NOT RESOLVED,3,Y,,Y,Y,,,,,
CDISCPILOT01,708,01-708-1316,Placebo,0,74,65-80,2,WHITE,1,F,Y,2013-08-23,2014-03-01,2014-01-29,,160,NA,NA,NA,,HEADACHE,HEADACHE,NA,HEADACHE,NA,HLT_0064,NA,HLGT_0344,NA,NERVOUS SYSTEM DISORDERS,NERVOUS SYSTEM DISORDERS,NA,MILD,N,N,N,N,N,N,N,N,POSSIBLE,,NOT RECOVERED/NOT RESOLVED,1,Y,Y,Y,Y,,,,,
CDISCPILOT01,708,01-708-1316,Placebo,0,74,65-80,2,WHITE,1,F,Y,2013-08-23,2014-03-01,2014-02-15,,177,NA,NA,NA,,APPLICATION SITE ERYTHEMA,APPLICATION SITE REDNESS,NA,APPLICATION SITE ERYTHEMA,NA,HLT_0617,NA,HLGT_0152,NA,GENERAL DISORDERS AND ADMINISTRATION SITE CONDITIONS,GENERAL DISORDERS AND ADMINISTRATION SITE CONDITIONS,NA,MILD,N,N,N,N,N,N,N,N,PROBABLE,,NOT RECOVERED/NOT RESOLVED,2,Y,,Y,Y,,,,DERMATOLOGIC EVENTS,Y
CDISCPILOT01,708,01-708-1336,Xanomeline High Dose,81,73,65-80,2,WHITE,1,M,Y,2012-12-07,2013-06-05,2012-12-18,,12,2012-12-18,12,1,DAY,DIZZINESS,LIGHTHEADEDNESS,NA,DIZZINESS,NA,HLT_0619,NA,HLGT_0751,NA,NERVOUS SYSTEM DISORDERS,NERVOUS SYSTEM DISORDERS,NA,MILD,N,N,N,N,N,N,N,N,POSSIBLE,,RECOVERED/RESOLVED,1,Y,Y,Y,Y,,,,,
CDISCPILOT01,708,01-708-1336,Xanomeline High Dose,81,73,65-80,2,WHITE,1,M,Y,2012-12-07,2013-06-05,2013-01-12,,37,2013-01-12,37,1,DAY,APPLICATION SITE PRURITUS,APPLICATION SITE ITCHING,NA,APPLICATION SITE PRURITUS,NA,HLT_0317,NA,HLGT_0338,NA,GENERAL DISORDERS AND ADMINISTRATION SITE CONDITIONS,GENERAL DISORDERS AND ADMINISTRATION SITE CONDITIONS,NA,MILD,N,N,N,N,N,N,N,N,PROBABLE,,RECOVERED/RESOLVED,2,Y,,Y,Y,,,,DERMATOLOGIC EVENTS,Y
CDISCPILOT01,708,01-708-1336,Xanomeline High Dose,81,73,65-80,2,WHITE,1,M,Y,2012-12-07,2013-06-05,2013-02-02,,58,2013-02-02,58,1,DAY,DIZZINESS,LIGHT HEADEDNESS,NA,DIZZINESS,NA,HLT_0619,NA,HLGT_0751,NA,NERVOUS SYSTEM DISORDERS,NERVOUS SYSTEM DISORDERS,NA,MILD,N,N,N,N,N,N,N,N,POSSIBLE,,RECOVERED/RESOLVED,3,Y,,,,,,,,
CDISCPILOT01,708,01-708-1336,Xanomeline High Dose,81,73,65-80,2,WHITE,1,M,Y,2012-12-07,2013-06-05,2013-04-10,,125,2013-06-05,181,57,DAY,APPLICATION SITE PRURITUS,APPLICATION SITE ITCHING,NA,APPLICATION SITE PRURITUS,NA,HLT_0317,NA,HLGT_0338,NA,GENERAL DISORDERS AND ADMINISTRATION SITE CONDITIONS,GENERAL DISORDERS AND ADMINISTRATION SITE CONDITIONS,NA,MILD,N,N,N,N,N,N,N,N,PROBABLE,,NOT RECOVERED/NOT RESOLVED,4,Y,,,,,,,DERMATOLOGIC EVENTS,
CDISCPILOT01,708,01-708-1336,Xanomeline High Dose,81,73,65-80,2,WHITE,1,M,Y,2012-12-07,2013-06-05,2013-04-10,,125,2013-06-05,181,57,DAY,APPLICATION SITE ERYTHEMA,APPLICATION SITE REDNESS,NA,APPLICATION SITE ERYTHEMA,NA,HLT_0617,NA,HLGT_0152,NA,GENERAL DISORDERS AND ADMINISTRATION SITE CONDITIONS,GENERAL DISORDERS AND ADMINISTRATION SITE CONDITIONS,NA,MILD,N,N,N,N,N,N,N,N,PROBABLE,,NOT RECOVERED/NOT RESOLVED,5,Y,,,Y,,,,DERMATOLOGIC EVENTS,
CDISCPILOT01,708,01-708-1336,Xanomeline High Dose,81,73,65-80,2,WHITE,1,M,Y,2012-12-07,2013-06-05,2013-04-10,,125,2013-06-05,181,57,DAY,APPLICATION SITE PRURITUS,APPLICATION SITE ITCHING,NA,APPLICATION SITE PRURITUS,NA,HLT_0317,NA,HLGT_0338,NA,GENERAL DISORDERS AND ADMINISTRATION SITE CONDITIONS,GENERAL DISORDERS AND ADMINISTRATION SITE CONDITIONS,NA,MILD,N,N,N,N,N,N,N,N,PROBABLE,,RECOVERED/RESOLVED,6,Y,,,,,,,DERMATOLOGIC EVENTS,
CDISCPILOT01,708,01-708-1336,Xanomeline High Dose,81,73,65-80,2,WHITE,1,M,Y,2012-12-07,2013-06-05,2013-04-10,,125,2013-06-05,181,57,DAY,APPLICATION SITE ERYTHEMA,APPLICATION SITE REDNESS,NA,APPLICATION SITE ERYTHEMA,NA,HLT_0617,NA,HLGT_0152,NA,GENERAL DISORDERS AND ADMINISTRATION SITE CONDITIONS,GENERAL DISORDERS AND ADMINISTRATION SITE CONDITIONS,NA,MILD,N,N,N,N,N,N,N,N,PROBABLE,,RECOVERED/RESOLVED,7,Y,,,,,,,DERMATOLOGIC EVENTS,
CDISCPILOT01,708,01-708-1347,Xanomeline High Dose,81,61,<65,1,WHITE,1,F,Y,2013-04-20,2013-06-18,2013-06-13,,55,2013-06-25,67,13,DAY,PRURITUS,ITCHING,NA,PRURITUS,NA,HLT_0778,NA,HLGT_0695,NA,SKIN AND SUBCUTANEOUS TISSUE DISORDERS,SKIN AND SUBCUTANEOUS TISSUE DISORDERS,NA,MILD,N,N,N,N,N,N,N,N,PROBABLE,,NOT RECOVERED/NOT RESOLVED,1,Y,Y,Y,Y,,,,DERMATOLOGIC EVENTS,Y
CDISCPILOT01,708,01-708-1347,Xanomeline High Dose,81,61,<65,1,WHITE,1,F,Y,2013-04-20,2013-06-18,2013-06-13,,55,2013-06-25,67,13,DAY,ERYTHEMA,ERYTHEMA,NA,ERYTHEMA,NA,HLT_0284,NA,HLGT_0192,NA,SKIN AND SUBCUTANEOUS TISSUE DISORDERS,SKIN AND SUBCUTANEOUS TISSUE DISORDERS,NA,MODERATE,N,N,N,N,N,N,N,N,PROBABLE,,NOT RECOVERED/NOT RESOLVED,2,Y,,,Y,,,,DERMATOLOGIC EVENTS,
CDISCPILOT01,708,01-708-1347,Xanomeline High Dose,81,61,<65,1,WHITE,1,F,Y,2013-04-20,2013-06-18,2013-06-13,,55,2013-06-25,67,13,DAY,APPLICATION SITE ERYTHEMA,APPLICATION SITE REDNESS,NA,APPLICATION SITE ERYTHEMA,NA,HLT_0617,NA,HLGT_0152,NA,GENERAL DISORDERS AND ADMINISTRATION SITE CONDITIONS,GENERAL DISORDERS AND ADMINISTRATION SITE CONDITIONS,NA,MODERATE,N,N,N,N,N,N,N,N,PROBABLE,,NOT RECOVERED/NOT RESOLVED,3,Y,,Y,Y,,,,DERMATOLOGIC EVENTS,
CDISCPILOT01,708,01-708-1347,Xanomeline High Dose,81,61,<65,1,WHITE,1,F,Y,2013-04-20,2013-06-18,2013-06-13,,55,2013-06-25,67,13,DAY,APPLICATION SITE SWELLING,APPLICATION SITE SWELLING,NA,APPLICATION SITE SWELLING,NA,HLT_0105,NA,HLGT_0236,NA,GENERAL DISORDERS AND ADMINISTRATION SITE CONDITIONS,GENERAL DISORDERS AND ADMINISTRATION SITE CONDITIONS,NA,MODERATE,N,N,N,N,N,N,N,N,PROBABLE,,NOT RECOVERED/NOT RESOLVED,4,Y,,,Y,,,,DERMATOLOGIC EVENTS,
CDISCPILOT01,708,01-708-1347,Xanomeline High Dose,81,61,<65,1,WHITE,1,F,Y,2013-04-20,2013-06-18,2013-06-13,,55,2013-06-25,67,13,DAY,PRURITUS,ITCHING,NA,PRURITUS,NA,HLT_0778,NA,HLGT_0695,NA,SKIN AND SUBCUTANEOUS TISSUE DISORDERS,SKIN AND SUBCUTANEOUS TISSUE DISORDERS,NA,MILD,N,N,N,N,N,N,N,N,PROBABLE,,RECOVERED/RESOLVED,5,Y,,,,,,,DERMATOLOGIC EVENTS,
