domain_type,dataset,variable,LABEL,TYPE,LENGTH
SDTM,DM,actarm,,2,20
SDTM,DM,actarmcd,,2,8
SDTM,DM,age,,1,8
SDTM,DM,ageu,,2,5
SDTM,DM,arm,,2,20
SDTM,DM,armcd,,2,8
SDTM,DM,country,,2,3
SDTM,DM,dmdtc,,1,8
SDTM,DM,dmdy,,2,3
SDTM,DM,domain,,2,2
SDTM,DM,dthdtc,,1,8
SDTM,DM,dthfl,,2,1
SDTM,DM,ethnic,,2,22
SDTM,DM,race,,2,32
SDTM,DM,rfendtc,,1,8
SDTM,DM,rficdtc,,2,1
SDTM,DM,rfpendtc,,1,8
SDTM,DM,rfstdtc,,1,8
SDTM,DM,rfxendtc,,1,8
SDTM,DM,rfxstdtc,,1,8
SDTM,DM,sex,,2,1
SDTM,DM,siteid,,1,8
SDTM,DM,studyid,,2,12
SDTM,DM,subjid,,1,8
SDTM,DM,usubjid,,2,11
SDTM,AE,aeacn,,2,1
SDTM,AE,aebdsycd,,2,2
SDTM,AE,aebodsys,,2,69
SDTM,AE,aedecod,,2,46
SDTM,AE,aedtc,,1,8
SDTM,AE,aeendtc,,1,8
SDTM,AE,aeendy,,2,3
SDTM,AE,aehlgt,,2,9
SDTM,AE,aehlgtcd,,2,2
SDTM,AE,aehlt,,2,8
SDTM,AE,aehltcd,,2,2
SDTM,AE,aellt,,2,46
SDTM,AE,aelltcd,,2,2
SDTM,AE,aeout,,2,26
SDTM,AE,aeptcd,,2,2
SDTM,AE,aerel,,2,8
SDTM,AE,aescan,,2,1
SDTM,AE,aescong,,2,1
SDTM,AE,aesdisab,,2,1
SDTM,AE,aesdth,,2,1
SDTM,AE,aeseq,,1,8
SDTM,AE,aeser,,2,1
SDTM,AE,aesev,,2,8
SDTM,AE,aeshosp,,2,1
SDTM,AE,aeslife,,2,1
SDTM,AE,aesoc,,2,69
SDTM,AE,aesoccd,,2,2
SDTM,AE,aesod,,2,1
SDTM,AE,aespid,,2,3
SDTM,AE,aestdtc,,2,10
SDTM,AE,aestdy,,2,4
SDTM,AE,aeterm,,2,46
SDTM,AE,domain,,2,2
SDTM,AE,studyid,,2,12
SDTM,AE,usubjid,,2,11
SDTM,LBCH,domain,,2,2
SDTM,LBCH,epoch,,2,9
SDTM,LBCH,lbblfl,,2,1
SDTM,LBCH,lbcat,,2,9
SDTM,LBCH,lbdtc,,1,8
SDTM,LBCH,lbdy,,1,8
SDTM,LBCH,lbnrind,,2,6
SDTM,LBCH,lbornrhi,,1,8
SDTM,LBCH,lbornrlo,,1,8
SDTM,LBCH,lborres,,2,4
SDTM,LBCH,lborresu,,2,5
SDTM,LBCH,lbseq,,1,8
SDTM,LBCH,lbstnrhi,,1,8
SDTM,LBCH,lbstnrlo,,1,8
SDTM,LBCH,lbstresc,,2,8
SDTM,LBCH,lbstresn,,2,8
SDTM,LBCH,lbstresu,,2,6
SDTM,LBCH,lbtest,,2,26
SDTM,LBCH,lbtestcd,,2,6
SDTM,LBCH,studyid,,2,12
SDTM,LBCH,usubjid,,2,11
SDTM,LBCH,visit,,2,17
SDTM,LBCH,visitdy,,2,3
SDTM,LBCH,visitnum,,1,8
ADAM,ADSL,age,,1,8
ADAM,ADSL,agegr1,,2,5
ADAM,ADSL,agegr1n,,1,8
ADAM,ADSL,ageu,,2,5
ADAM,ADSL,arm,,2,20
ADAM,ADSL,avgdd,,1,8
ADAM,ADSL,bmibl,,2,4
ADAM,ADSL,bmiblgr1,,2,6
ADAM,ADSL,comp16fl,,2,1
ADAM,ADSL,comp24fl,,2,1
ADAM,ADSL,comp8fl,,2,1
ADAM,ADSL,cumdose,,1,8
ADAM,ADSL,dcdecod,,2,27
ADAM,ADSL,dcreascd,,2,18
ADAM,ADSL,disconfl,,2,1
ADAM,ADSL,disonsdt,,1,8
ADAM,ADSL,dsraefl,,2,1
ADAM,ADSL,dthfl,,2,1
ADAM,ADSL,durdis,,1,8
ADAM,ADSL,durdsgr1,,2,4
ADAM,ADSL,educlvl,,1,8
ADAM,ADSL,efffl,,2,1
ADAM,ADSL,ethnic,,2,22
ADAM,ADSL,heightbl,,1,8
ADAM,ADSL,ittfl,,2,1
ADAM,ADSL,mmsetot,,1,8
ADAM,ADSL,race,,2,32
ADAM,ADSL,racen,,1,8
ADAM,ADSL,rfendt,,1,8
ADAM,ADSL,rfendtc,,1,8
ADAM,ADSL,rfstdtc,,1,8
ADAM,ADSL,saffl,,2,1
ADAM,ADSL,sex,,2,1
ADAM,ADSL,sitegr1,,1,8
ADAM,ADSL,siteid,,1,8
ADAM,ADSL,studyid,,2,12
ADAM,ADSL,subjid,,1,8
ADAM,ADSL,trt01a,,2,20
ADAM,ADSL,trt01an,,1,8
ADAM,ADSL,trt01p,,2,20
ADAM,ADSL,trt01pn,,1,8
ADAM,ADSL,trtdur,,1,8
ADAM,ADSL,trtedt,,1,8
ADAM,ADSL,trtsdt,,1,8
ADAM,ADSL,usubjid,,2,11
ADAM,ADSL,visit1dt,,1,8
ADAM,ADSL,visnumen,,1,8
ADAM,ADSL,weightbl,,2,5
ADAM,ADAE,adurn,,2,3
ADAM,ADAE,aduru,,2,3
ADAM,ADAE,aeacn,,2,1
ADAM,ADAE,aebodsys,,2,69
ADAM,ADAE,aedecod,,2,46
ADAM,ADAE,aehlgt,,2,9
ADAM,ADAE,aehlgtcd,,2,2
ADAM,ADAE,aehlt,,2,8
ADAM,ADAE,aehltcd,,2,2
ADAM,ADAE,aellt,,2,46
ADAM,ADAE,aelltcd,,2,2
ADAM,ADAE,aendt,,2,10
ADAM,ADAE,aendy,,2,3
ADAM,ADAE,aeout,,2,26
ADAM,ADAE,aeptcd,,2,2
ADAM,ADAE,aerel,,2,8
ADAM,ADAE,aescan,,2,1
ADAM,ADAE,aescong,,2,1
ADAM,ADAE,aesdisab,,2,1
ADAM,ADAE,aesdth,,2,1
ADAM,ADAE,aeseq,,1,8
ADAM,ADAE,aeser,,2,1
ADAM,ADAE,aesev,,2,8
ADAM,ADAE,aeshosp,,2,1
ADAM,ADAE,aeslife,,2,1
ADAM,ADAE,aesoc,,2,69
ADAM,ADAE,aesoccd,,2,2
ADAM,ADAE,aesod,,2,1
ADAM,ADAE,aeterm,,2,46
ADAM,ADAE,age,,1,8
ADAM,ADAE,agegr1,,2,5
ADAM,ADAE,agegr1n,,1,8
ADAM,ADAE,aocc01fl,,2,1
ADAM,ADAE,aocc02fl,,2,1
ADAM,ADAE,aocc03fl,,2,1
ADAM,ADAE,aocc04fl,,2,1
ADAM,ADAE,aoccfl,,2,1
ADAM,ADAE,aoccpfl,,2,1
ADAM,ADAE,aoccsfl,,2,1
ADAM,ADAE,astdt,,2,10
ADAM,ADAE,astdtf,,2,1
ADAM,ADAE,astdy,,2,5
ADAM,ADAE,cq01nam,,2,19
ADAM,ADAE,race,,2,32
ADAM,ADAE,racen,,1,8
ADAM,ADAE,saffl,,2,1
ADAM,ADAE,sex,,2,1
ADAM,ADAE,siteid,,1,8
ADAM,ADAE,studyid,,2,12
ADAM,ADAE,trta,,2,20
ADAM,ADAE,trtan,,1,8
ADAM,ADAE,trtedt,,1,8
ADAM,ADAE,trtemfl,,2,1
ADAM,ADAE,trtsdt,,1,8
ADAM,ADAE,usubjid,,2,11
ADAM,ADLBC,a1hi,,2,4
ADAM,ADLBC,a1lo,,2,4
ADAM,ADLBC,ablfl,,2,1
ADAM,ADLBC,adt,,1,8
ADAM,ADLBC,ady,,1,8
ADAM,ADLBC,aentmtfl,,2,1
ADAM,ADLBC,age,,1,8
ADAM,ADLBC,agegr1,,2,5
ADAM,ADLBC,agegr1n,,1,8
ADAM,ADLBC,albtrval,,2,8
ADAM,ADLBC,anl01fl,,2,1
ADAM,ADLBC,anrind,,2,1
ADAM,ADLBC,aval,,2,8
ADAM,ADLBC,avisit,,2,16
ADAM,ADLBC,avisitn,,2,2
ADAM,ADLBC,base,,2,8
ADAM,ADLBC,bnrind,,2,1
ADAM,ADLBC,br2a1hi,,2,17
ADAM,ADLBC,br2a1lo,,2,17
ADAM,ADLBC,chg,,2,19
ADAM,ADLBC,comp24fl,,2,1
ADAM,ADLBC,dsraefl,,2,1
ADAM,ADLBC,lbnrind,,2,6
ADAM,ADLBC,lbseq,,1,8
ADAM,ADLBC,lbstresn,,2,8
ADAM,ADLBC,param,,2,87
ADAM,ADLBC,paramcd,,2,7
ADAM,ADLBC,paramn,,1,8
ADAM,ADLBC,parcat1,,2,4
ADAM,ADLBC,r2a1hi,,2,17
ADAM,ADLBC,r2a1lo,,2,17
ADAM,ADLBC,race,,2,32
ADAM,ADLBC,racen,,1,8
ADAM,ADLBC,saffl,,2,1
ADAM,ADLBC,sex,,2,1
ADAM,ADLBC,studyid,,2,12
ADAM,ADLBC,subjid,,1,8
ADAM,ADLBC,trta,,2,20
ADAM,ADLBC,trtan,,1,8
ADAM,ADLBC,trtedt,,1,8
ADAM,ADLBC,trtp,,2,20
ADAM,ADLBC,trtpn,,1,8
ADAM,ADLBC,trtsdt,,1,8
ADAM,ADLBC,usubjid,,2,11
ADAM,ADLBC,visit,,2,16
ADAM,ADLBC,visitnum,,1,8
