studyid,domain,usubjid,lbseq,lbtestcd,lbtest,lbcat,lborres,lborresu,lbornrlo,lbornrhi,lbstresc,lbstresn,lbstresu,lbstnrlo,lbstnrhi,lbnrind,lbblfl,visitnum,visit,visitdy,epoch,lbdtc,lbdy
CDISCPILOT01,LB,01-701-1015,1,ALB,Albumin,CHEMISTRY,3.8,g/dL,3.3,4.9,38,38,g/L,33,49,NORMAL,Y,1,SCREENING 1,-7,SCREENING,2013-12-26T14:45,-7
CDISCPILOT01,LB,01-701-1015,39,ALB,Albumin,CHEMISTRY,3.9,g/dL,3.3,4.9,39,39,g/L,33,49,NORMAL,,4,WEEK 2,14,TREATMENT,2014-01-16T13:17,15
CDISCPILOT01,LB,01-701-1015,74,ALB,Albumin,CHEMISTRY,3.8,g/dL,3.3,4.9,38,38,g/L,33,49,NORMAL,,5,WEEK 4,28,TREATMENT,2014-01-30T08:50,29
CDISCPILOT01,LB,01-701-1015,104,ALB,Albumin,CHEMISTRY,3.7,g/dL,3.3,4.9,37,37,g/L,33,49,NORMAL,,7,WEEK 6,42,TREATMENT,2014-02-12T12:56,42
CDISCPILOT01,LB,01-701-1015,134,ALB,Albumin,CHEMISTRY,3.8,g/dL,3.3,4.9,38,38,g/L,33,49,NORMAL,,8,WEEK 8,56,TREATMENT,2014-03-05T12:25,63
CDISCPILOT01,LB,01-701-1015,164,ALB,Albumin,CHEMISTRY,3.8,g/dL,3.3,4.9,38,38,g/L,33,49,NORMAL,,9,WEEK 12,84,TREATMENT,2014-03-26T15:15,84
CDISCPILOT01,LB,01-701-1015,199,ALB,Albumin,CHEMISTRY,3.7,g/dL,3.3,4.9,37,37,g/L,33,49,NORMAL,,10,WEEK 16,112,TREATMENT,2014-05-07T11:21,126
CDISCPILOT01,LB,01-701-1015,229,ALB,Albumin,CHEMISTRY,3.7,g/dL,3.3,4.9,37,37,g/L,33,49,NORMAL,,11,WEEK 20,140,TREATMENT,2014-05-21T10:58,140
CDISCPILOT01,LB,01-701-1015,259,ALB,Albumin,CHEMISTRY,3.8,g/dL,3.3,4.9,38,38,g/L,33,49,NORMAL,,12,WEEK 24,168,TREATMENT,2014-06-18T13:00,168
CDISCPILOT01,LB,01-701-1015,294,ALB,Albumin,CHEMISTRY,3.8,g/dL,3.3,4.9,38,38,g/L,33,49,NORMAL,,13,WEEK 26,182,TREATMENT,2014-07-02T11:45,182
CDISCPILOT01,LB,01-701-1015,2,ALP,Alkaline Phosphatase,CHEMISTRY,34,U/L,35,115,34,34,U/L,35,115,LOW,Y,1,SCREENING 1,-7,SCREENING,2013-12-26T14:45,-7
CDISCPILOT01,LB,01-701-1015,40,ALP,Alkaline Phosphatase,CHEMISTRY,50,U/L,35,115,50,50,U/L,35,115,NORMAL,,4,WEEK 2,14,TREATMENT,2014-01-16T13:17,15
CDISCPILOT01,LB,01-701-1015,75,ALP,Alkaline Phosphatase,CHEMISTRY,41,U/L,35,115,41,41,U/L,35,115,NORMAL,,5,WEEK 4,28,TREATMENT,2014-01-30T08:50,29
CDISCPILOT01,LB,01-701-1015,105,ALP,Alkaline Phosphatase,CHEMISTRY,43,U/L,35,115,43,43,U/L,35,115,NORMAL,,7,WEEK 6,42,TREATMENT,2014-02-12T12:56,42
CDISCPILOT01,LB,01-701-1015,135,ALP,Alkaline Phosphatase,CHEMISTRY,47,U/L,35,115,47,47,U/L,35,115,NORMAL,,8,WEEK 8,56,TREATMENT,2014-03-05T12:25,63
CDISCPILOT01,LB,01-701-1015,165,ALP,Alkaline Phosphatase,CHEMISTRY,53,U/L,35,115,53,53,U/L,35,115,NORMAL,,9,WEEK 12,84,TREATMENT,2014-03-26T15:15,84
CDISCPILOT01,LB,01-701-1015,200,ALP,Alkaline Phosphatase,CHEMISTRY,41,U/L,35,115,41,41,U/L,35,115,NORMAL,,10,WEEK 16,112,TREATMENT,2014-05-07T11:21,126
CDISCPILOT01,LB,01-701-1015,230,ALP,Alkaline Phosphatase,CHEMISTRY,45,U/L,35,115,45,45,U/L,35,115,NORMAL,,11,WEEK 20,140,TREATMENT,2014-05-21T10:58,140
CDISCPILOT01,LB,01-701-1015,260,ALP,Alkaline Phosphatase,CHEMISTRY,46,U/L,35,115,46,46,U/L,35,115,NORMAL,,12,WEEK 24,168,TREATMENT,2014-06-18T13:00,168
CDISCPILOT01,LB,01-701-1015,295,ALP,Alkaline Phosphatase,CHEMISTRY,44,U/L,35,115,44,44,U/L,35,115,NORMAL,,13,WEEK 26,182,TREATMENT,2014-07-02T11:45,182
CDISCPILOT01,LB,01-701-1015,3,ALT,Alanine Aminotransferase,CHEMISTRY,27,U/L,6,34,27,27,U/L,6,34,NORMAL,Y,1,SCREENING 1,-7,SCREENING,2013-12-26T14:45,-7
CDISCPILOT01,LB,01-701-1015,41,ALT,Alanine Aminotransferase,CHEMISTRY,41,U/L,6,34,41,41,U/L,6,34,HIGH,,4,WEEK 2,14,TREATMENT,2014-01-16T13:17,15
CDISCPILOT01,LB,01-701-1015,76,ALT,Alanine Aminotransferase,CHEMISTRY,18,U/L,6,34,18,18,U/L,6,34,NORMAL,,5,WEEK 4,28,TREATMENT,2014-01-30T08:50,29
CDISCPILOT01,LB,01-701-1015,106,ALT,Alanine Aminotransferase,CHEMISTRY,26,U/L,6,34,26,26,U/L,6,34,NORMAL,,7,WEEK 6,42,TREATMENT,2014-02-12T12:56,42
CDISCPILOT01,LB,01-701-1015,136,ALT,Alanine Aminotransferase,CHEMISTRY,22,U/L,6,34,22,22,U/L,6,34,NORMAL,,8,WEEK 8,56,TREATMENT,2014-03-05T12:25,63
CDISCPILOT01,LB,01-701-1015,166,ALT,Alanine Aminotransferase,CHEMISTRY,27,U/L,6,34,27,27,U/L,6,34,NORMAL,,9,WEEK 12,84,TREATMENT,2014-03-26T15:15,84
CDISCPILOT01,LB,01-701-1015,201,ALT,Alanine Aminotransferase,CHEMISTRY,17,U/L,6,34,17,17,U/L,6,34,NORMAL,,10,WEEK 16,112,TREATMENT,2014-05-07T11:21,126
CDISCPILOT01,LB,01-701-1015,231,ALT,Alanine Aminotransferase,CHEMISTRY,21,U/L,6,34,21,21,U/L,6,34,NORMAL,,11,WEEK 20,140,TREATMENT,2014-05-21T10:58,140
CDISCPILOT01,LB,01-701-1015,261,ALT,Alanine Aminotransferase,CHEMISTRY,23,U/L,6,34,23,23,U/L,6,34,NORMAL,,12,WEEK 24,168,TREATMENT,2014-06-18T13:00,168
CDISCPILOT01,LB,01-701-1015,296,ALT,Alanine Aminotransferase,CHEMISTRY,23,U/L,6,34,23,23,U/L,6,34,NORMAL,,13,WEEK 26,182,TREATMENT,2014-07-02T11:45,182
CDISCPILOT01,LB,01-701-1015,5,AST,Aspartate Aminotransferase,CHEMISTRY,40,U/L,9,34,40,40,U/L,9,34,HIGH,Y,1,SCREENING 1,-7,SCREENING,2013-12-26T14:45,-7
CDISCPILOT01,LB,01-701-1015,42,AST,Aspartate Aminotransferase,CHEMISTRY,33,U/L,9,34,33,33,U/L,9,34,NORMAL,,4,WEEK 2,14,TREATMENT,2014-01-16T13:17,15
CDISCPILOT01,LB,01-701-1015,77,AST,Aspartate Aminotransferase,CHEMISTRY,21,U/L,9,34,21,21,U/L,9,34,NORMAL,,5,WEEK 4,28,TREATMENT,2014-01-30T08:50,29
CDISCPILOT01,LB,01-701-1015,107,AST,Aspartate Aminotransferase,CHEMISTRY,26,U/L,9,34,26,26,U/L,9,34,NORMAL,,7,WEEK 6,42,TREATMENT,2014-02-12T12:56,42
CDISCPILOT01,LB,01-701-1015,137,AST,Aspartate Aminotransferase,CHEMISTRY,21,U/L,9,34,21,21,U/L,9,34,NORMAL,,8,WEEK 8,56,TREATMENT,2014-03-05T12:25,63
CDISCPILOT01,LB,01-701-1015,167,AST,Aspartate Aminotransferase,CHEMISTRY,22,U/L,9,34,22,22,U/L,9,34,NORMAL,,9,WEEK 12,84,TREATMENT,2014-03-26T15:15,84
CDISCPILOT01,LB,01-701-1015,202,AST,Aspartate Aminotransferase,CHEMISTRY,23,U/L,9,34,23,23,U/L,9,34,NORMAL,,10,WEEK 16,112,TREATMENT,2014-05-07T11:21,126
CDISCPILOT01,LB,01-701-1015,232,AST,Aspartate Aminotransferase,CHEMISTRY,19,U/L,9,34,19,19,U/L,9,34,NORMAL,,11,WEEK 20,140,TREATMENT,2014-05-21T10:58,140
CDISCPILOT01,LB,01-701-1015,262,AST,Aspartate Aminotransferase,CHEMISTRY,23,U/L,9,34,23,23,U/L,9,34,NORMAL,,12,WEEK 24,168,TREATMENT,2014-06-18T13:00,168
CDISCPILOT01,LB,01-701-1015,297,AST,Aspartate Aminotransferase,CHEMISTRY,19,U/L,9,34,19,19,U/L,9,34,NORMAL,,13,WEEK 26,182,TREATMENT,2014-07-02T11:45,182
CDISCPILOT01,LB,01-701-1015,7,BILI,Bilirubin,CHEMISTRY,0.6,mg/dL,0.2,1.2,10.26,10.26,umol/L,3,21,NORMAL,Y,1,SCREENING 1,-7,SCREENING,2013-12-26T14:45,-7
CDISCPILOT01,LB,01-701-1015,44,BILI,Bilirubin,CHEMISTRY,0.5,mg/dL,0.2,1.2,8.55,8.55,umol/L,3,21,NORMAL,,4,WEEK 2,14,TREATMENT,2014-01-16T13:17,15
CDISCPILOT01,LB,01-701-1015,79,BILI,Bilirubin,CHEMISTRY,0.4,mg/dL,0.2,1.2,6.84,6.84,umol/L,3,21,NORMAL,,5,WEEK 4,28,TREATMENT,2014-01-30T08:50,29
CDISCPILOT01,LB,01-701-1015,109,BILI,Bilirubin,CHEMISTRY,0.3,mg/dL,0.2,1.2,5.13,5.13,umol/L,3,21,NORMAL,,7,WEEK 6,42,TREATMENT,2014-02-12T12:56,42
CDISCPILOT01,LB,01-701-1015,139,BILI,Bilirubin,CHEMISTRY,0.5,mg/dL,0.2,1.2,8.55,8.55,umol/L,3,21,NORMAL,,8,WEEK 8,56,TREATMENT,2014-03-05T12:25,63
CDISCPILOT01,LB,01-701-1015,169,BILI,Bilirubin,CHEMISTRY,0.4,mg/dL,0.2,1.2,6.84,6.84,umol/L,3,21,NORMAL,,9,WEEK 12,84,TREATMENT,2014-03-26T15:15,84
CDISCPILOT01,LB,01-701-1015,204,BILI,Bilirubin,CHEMISTRY,0.4,mg/dL,0.2,1.2,6.84,6.84,umol/L,3,21,NORMAL,,10,WEEK 16,112,TREATMENT,2014-05-07T11:21,126
CDISCPILOT01,LB,01-701-1015,234,BILI,Bilirubin,CHEMISTRY,0.4,mg/dL,0.2,1.2,6.84,6.84,umol/L,3,21,NORMAL,,11,WEEK 20,140,TREATMENT,2014-05-21T10:58,140
CDISCPILOT01,LB,01-701-1015,264,BILI,Bilirubin,CHEMISTRY,0.4,mg/dL,0.2,1.2,6.84,6.84,umol/L,3,21,NORMAL,,12,WEEK 24,168,TREATMENT,2014-06-18T13:00,168
CDISCPILOT01,LB,01-701-1015,299,BILI,Bilirubin,CHEMISTRY,0.3,mg/dL,0.2,1.2,5.13,5.13,umol/L,3,21,NORMAL,,13,WEEK 26,182,TREATMENT,2014-07-02T11:45,182
CDISCPILOT01,LB,01-701-1015,8,UREAN,Urea Nitrogen,CHEMISTRY,10,mg/dL,4,24,3.57,3.57,mmol/L,1.4,8.6,NORMAL,Y,1,SCREENING 1,-7,SCREENING,2013-12-26T14:45,-7
CDISCPILOT01,LB,01-701-1015,45,UREAN,Urea Nitrogen,CHEMISTRY,10,mg/dL,4,24,3.57,3.57,mmol/L,1.4,8.6,NORMAL,,4,WEEK 2,14,TREATMENT,2014-01-16T13:17,15
CDISCPILOT01,LB,01-701-1015,80,UREAN,Urea Nitrogen,CHEMISTRY,8,mg/dL,4,24,2.856,2.856,mmol/L,1.4,8.6,NORMAL,,5,WEEK 4,28,TREATMENT,2014-01-30T08:50,29
CDISCPILOT01,LB,01-701-1015,110,UREAN,Urea Nitrogen,CHEMISTRY,12,mg/dL,4,24,4.284,4.284,mmol/L,1.4,8.6,NORMAL,,7,WEEK 6,42,TREATMENT,2014-02-12T12:56,42
CDISCPILOT01,LB,01-701-1015,140,UREAN,Urea Nitrogen,CHEMISTRY,11,mg/dL,4,24,3.927,3.927,mmol/L,1.4,8.6,NORMAL,,8,WEEK 8,56,TREATMENT,2014-03-05T12:25,63
CDISCPILOT01,LB,01-701-1015,170,UREAN,Urea Nitrogen,CHEMISTRY,10,mg/dL,4,24,3.57,3.57,mmol/L,1.4,8.6,NORMAL,,9,WEEK 12,84,TREATMENT,2014-03-26T15:15,84
CDISCPILOT01,LB,01-701-1015,205,UREAN,Urea Nitrogen,CHEMISTRY,10,mg/dL,4,24,3.57,3.57,mmol/L,1.4,8.6,NORMAL,,10,WEEK 16,112,TREATMENT,2014-05-07T11:21,126
CDISCPILOT01,LB,01-701-1015,235,UREAN,Urea Nitrogen,CHEMISTRY,11,mg/dL,4,24,3.927,3.927,mmol/L,1.4,8.6,NORMAL,,11,WEEK 20,140,TREATMENT,2014-05-21T10:58,140
CDISCPILOT01,LB,01-701-1015,265,UREAN,Urea Nitrogen,CHEMISTRY,12,mg/dL,4,24,4.284,4.284,mmol/L,1.4,8.6,NORMAL,,12,WEEK 24,168,TREATMENT,2014-06-18T13:00,168
CDISCPILOT01,LB,01-701-1015,300,UREAN,Urea Nitrogen,CHEMISTRY,11,mg/dL,4,24,3.927,3.927,mmol/L,1.4,8.6,NORMAL,,13,WEEK 26,182,TREATMENT,2014-07-02T11:45,182
CDISCPILOT01,LB,01-701-1015,9,CA,Calcium,CHEMISTRY,8.8,mg/dL,8.4,10.3,2.1956,2.1956,mmol/L,2.1,2.57,NORMAL,Y,1,SCREENING 1,-7,SCREENING,2013-12-26T14:45,-7
CDISCPILOT01,LB,01-701-1015,46,CA,Calcium,CHEMISTRY,9.4,mg/dL,8.4,10.3,2.3453,2.3453,mmol/L,2.1,2.57,NORMAL,,4,WEEK 2,14,TREATMENT,2014-01-16T13:17,15
CDISCPILOT01,LB,01-701-1015,81,CA,Calcium,CHEMISTRY,9.1,mg/dL,8.4,10.3,2.27045,2.27045,mmol/L,2.1,2.57,NORMAL,,5,WEEK 4,28,TREATMENT,2014-01-30T08:50,29
CDISCPILOT01,LB,01-701-1015,111,CA,Calcium,CHEMISTRY,9.2,mg/dL,8.4,10.3,2.2954,2.2954,mmol/L,2.1,2.57,NORMAL,,7,WEEK 6,42,TREATMENT,2014-02-12T12:56,42
CDISCPILOT01,LB,01-701-1015,141,CA,Calcium,CHEMISTRY,8.9,mg/dL,8.4,10.3,2.22055,2.22055,mmol/L,2.1,2.57,NORMAL,,8,WEEK 8,56,TREATMENT,2014-03-05T12:25,63
CDISCPILOT01,LB,01-701-1015,171,CA,Calcium,CHEMISTRY,9.4,mg/dL,8.4,10.3,2.3453,2.3453,mmol/L,2.1,2.57,NORMAL,,9,WEEK 12,84,TREATMENT,2014-03-26T15:15,84
CDISCPILOT01,LB,01-701-1015,206,CA,Calcium,CHEMISTRY,8.8,mg/dL,8.4,10.3,2.1956,2.1956,mmol/L,2.1,2.57,NORMAL,,10,WEEK 16,112,TREATMENT,2014-05-07T11:21,126
CDISCPILOT01,LB,01-701-1015,236,CA,Calcium,CHEMISTRY,8.7,mg/dL,8.4,10.3,2.17065,2.17065,mmol/L,2.1,2.57,NORMAL,,11,WEEK 20,140,TREATMENT,2014-05-21T10:58,140
CDISCPILOT01,LB,01-701-1015,266,CA,Calcium,CHEMISTRY,8.9,mg/dL,8.4,10.3,2.22055,2.22055,mmol/L,2.1,2.57,NORMAL,,12,WEEK 24,168,TREATMENT,2014-06-18T13:00,168
CDISCPILOT01,LB,01-701-1015,301,CA,Calcium,CHEMISTRY,8.8,mg/dL,8.4,10.3,2.1956,2.1956,mmol/L,2.1,2.57,NORMAL,,13,WEEK 26,182,TREATMENT,2014-07-02T11:45,182
CDISCPILOT01,LB,01-701-1015,10,CHOL,Cholesterol,CHEMISTRY,230,mg/dL,156,300,5.9478,5.9478,mmol/L,4.03,7.76,NORMAL,Y,1,SCREENING 1,-7,SCREENING,2013-12-26T14:45,-7
CDISCPILOT01,LB,01-701-1015,47,CHOL,Cholesterol,CHEMISTRY,212,mg/dL,156,300,5.48232,5.48232,mmol/L,4.03,7.76,NORMAL,,4,WEEK 2,14,TREATMENT,2014-01-16T13:17,15
CDISCPILOT01,LB,01-701-1015,82,CHOL,Cholesterol,CHEMISTRY,193,mg/dL,156,300,4.99098,4.99098,mmol/L,4.03,7.76,NORMAL,,5,WEEK 4,28,TREATMENT,2014-01-30T08:50,29
CDISCPILOT01,LB,01-701-1015,112,CHOL,Cholesterol,CHEMISTRY,218,mg/dL,156,300,5.63748,5.63748,mmol/L,4.03,7.76,NORMAL,,7,WEEK 6,42,TREATMENT,2014-02-12T12:56,42
CDISCPILOT01,LB,01-701-1015,142,CHOL,Cholesterol,CHEMISTRY,214,mg/dL,156,300,5.53404,5.53404,mmol/L,4.03,7.76,NORMAL,,8,WEEK 8,56,TREATMENT,2014-03-05T12:25,63
CDISCPILOT01,LB,01-701-1015,172,CHOL,Cholesterol,CHEMISTRY,218,mg/dL,156,300,5.63748,5.63748,mmol/L,4.03,7.76,NORMAL,,9,WEEK 12,84,TREATMENT,2014-03-26T15:15,84
CDISCPILOT01,LB,01-701-1015,207,CHOL,Cholesterol,CHEMISTRY,213,mg/dL,156,300,5.50818,5.50818,mmol/L,4.03,7.76,NORMAL,,10,WEEK 16,112,TREATMENT,2014-05-07T11:21,126
CDISCPILOT01,LB,01-701-1015,237,CHOL,Cholesterol,CHEMISTRY,207,mg/dL,156,300,5.35302,5.35302,mmol/L,4.03,7.76,NORMAL,,11,WEEK 20,140,TREATMENT,2014-05-21T10:58,140
CDISCPILOT01,LB,01-701-1015,267,CHOL,Cholesterol,CHEMISTRY,201,mg/dL,156,300,5.19786,5.19786,mmol/L,4.03,7.76,NORMAL,,12,WEEK 24,168,TREATMENT,2014-06-18T13:00,168
CDISCPILOT01,LB,01-701-1015,302,CHOL,Cholesterol,CHEMISTRY,214,mg/dL,156,300,5.53404,5.53404,mmol/L,4.03,7.76,NORMAL,,13,WEEK 26,182,TREATMENT,2014-07-02T11:45,182
CDISCPILOT01,LB,01-701-1015,11,CK,Creatine Kinase,CHEMISTRY,70,U/L,21,169,70,70,U/L,21,169,NORMAL,Y,1,SCREENING 1,-7,SCREENING,2013-12-26T14:45,-7
CDISCPILOT01,LB,01-701-1015,48,CK,Creatine Kinase,CHEMISTRY,54,U/L,21,169,54,54,U/L,21,169,NORMAL,,4,WEEK 2,14,TREATMENT,2014-01-16T13:17,15
CDISCPILOT01,LB,01-701-1015,83,CK,Creatine Kinase,CHEMISTRY,45,U/L,21,169,45,45,U/L,21,169,NORMAL,,5,WEEK 4,28,TREATMENT,2014-01-30T08:50,29
CDISCPILOT01,LB,01-701-1015,113,CK,Creatine Kinase,CHEMISTRY,64,U/L,21,169,64,64,U/L,21,169,NORMAL,,7,WEEK 6,42,TREATMENT,2014-02-12T12:56,42
CDISCPILOT01,LB,01-701-1015,143,CK,Creatine Kinase,CHEMISTRY,49,U/L,21,169,49,49,U/L,21,169,NORMAL,,8,WEEK 8,56,TREATMENT,2014-03-05T12:25,63
CDISCPILOT01,LB,01-701-1015,173,CK,Creatine Kinase,CHEMISTRY,56,U/L,21,169,56,56,U/L,21,169,NORMAL,,9,WEEK 12,84,TREATMENT,2014-03-26T15:15,84
CDISCPILOT01,LB,01-701-1015,208,CK,Creatine Kinase,CHEMISTRY,50,U/L,21,169,50,50,U/L,21,169,NORMAL,,10,WEEK 16,112,TREATMENT,2014-05-07T11:21,126
CDISCPILOT01,LB,01-701-1015,238,CK,Creatine Kinase,CHEMISTRY,50,U/L,21,169,50,50,U/L,21,169,NORMAL,,11,WEEK 20,140,TREATMENT,2014-05-21T10:58,140
CDISCPILOT01,LB,01-701-1015,268,CK,Creatine Kinase,CHEMISTRY,42,U/L,21,169,42,42,U/L,21,169,NORMAL,,12,WEEK 24,168,TREATMENT,2014-06-18T13:00,168
CDISCPILOT01,LB,01-701-1015,303,CK,Creatine Kinase,CHEMISTRY,44,U/L,21,169,44,44,U/L,21,169,NORMAL,,13,WEEK 26,182,TREATMENT,2014-07-02T11:45,182
CDISCPILOT01,LB,01-701-1015,12,CL,Chloride,CHEMISTRY,106,mEq/L,94,112,106,106,mmol/L,94,112,NORMAL,Y,1,SCREENING 1,-7,SCREENING,2013-12-26T14:45,-7
CDISCPILOT01,LB,01-701-1015,49,CL,Chloride,CHEMISTRY,103,mEq/L,94,112,103,103,mmol/L,94,112,NORMAL,,4,WEEK 2,14,TREATMENT,2014-01-16T13:17,15
CDISCPILOT01,LB,01-701-1015,84,CL,Chloride,CHEMISTRY,107,mEq/L,94,112,107,107,mmol/L,94,112,NORMAL,,5,WEEK 4,28,TREATMENT,2014-01-30T08:50,29
CDISCPILOT01,LB,01-701-1015,114,CL,Chloride,CHEMISTRY,105,mEq/L,94,112,105,105,mmol/L,94,112,NORMAL,,7,WEEK 6,42,TREATMENT,2014-02-12T12:56,42
CDISCPILOT01,LB,01-701-1015,144,CL,Chloride,CHEMISTRY,105,mEq/L,94,112,105,105,mmol/L,94,112,NORMAL,,8,WEEK 8,56,TREATMENT,2014-03-05T12:25,63
CDISCPILOT01,LB,01-701-1015,174,CL,Chloride,CHEMISTRY,99,mEq/L,94,112,99,99,mmol/L,94,112,NORMAL,,9,WEEK 12,84,TREATMENT,2014-03-26T15:15,84
CDISCPILOT01,LB,01-701-1015,209,CL,Chloride,CHEMISTRY,103,mEq/L,94,112,103,103,mmol/L,94,112,NORMAL,,10,WEEK 16,112,TREATMENT,2014-05-07T11:21,126
CDISCPILOT01,LB,01-701-1015,239,CL,Chloride,CHEMISTRY,108,mEq/L,94,112,108,108,mmol/L,94,112,NORMAL,,11,WEEK 20,140,TREATMENT,2014-05-21T10:58,140
CDISCPILOT01,LB,01-701-1015,269,CL,Chloride,CHEMISTRY,103,mEq/L,94,112,103,103,mmol/L,94,112,NORMAL,,12,WEEK 24,168,TREATMENT,2014-06-18T13:00,168
CDISCPILOT01,LB,01-701-1015,304,CL,Chloride,CHEMISTRY,104,mEq/L,94,112,104,104,mmol/L,94,112,NORMAL,,13,WEEK 26,182,TREATMENT,2014-07-02T11:45,182
CDISCPILOT01,LB,01-701-1015,14,CREAT,Creatinine,CHEMISTRY,0.9,mg/dL,0.7,1.4,79.56,79.56,umol/L,62,124,NORMAL,Y,1,SCREENING 1,-7,SCREENING,2013-12-26T14:45,-7
CDISCPILOT01,LB,01-701-1015,51,CREAT,Creatinine,CHEMISTRY,1.0,mg/dL,0.7,1.4,88.4,88.4,umol/L,62,124,NORMAL,,4,WEEK 2,14,TREATMENT,2014-01-16T13:17,15
CDISCPILOT01,LB,01-701-1015,85,CREAT,Creatinine,CHEMISTRY,0.8,mg/dL,0.7,1.4,70.72,70.72,umol/L,62,124,NORMAL,,5,WEEK 4,28,TREATMENT,2014-01-30T08:50,29
CDISCPILOT01,LB,01-701-1015,115,CREAT,Creatinine,CHEMISTRY,1.0,mg/dL,0.7,1.4,88.4,88.4,umol/L,62,124,NORMAL,,7,WEEK 6,42,TREATMENT,2014-02-12T12:56,42
CDISCPILOT01,LB,01-701-1015,145,CREAT,Creatinine,CHEMISTRY,1.0,mg/dL,0.7,1.4,88.4,88.4,umol/L,62,124,NORMAL,,8,WEEK 8,56,TREATMENT,2014-03-05T12:25,63
CDISCPILOT01,LB,01-701-1015,176,CREAT,Creatinine,CHEMISTRY,0.9,mg/dL,0.7,1.4,79.56,79.56,umol/L,62,124,NORMAL,,9,WEEK 12,84,TREATMENT,2014-03-26T15:15,84
CDISCPILOT01,LB,01-701-1015,210,CREAT,Creatinine,CHEMISTRY,1.0,mg/dL,0.7,1.4,88.4,88.4,umol/L,62,124,NORMAL,,10,WEEK 16,112,TREATMENT,2014-05-07T11:21,126
CDISCPILOT01,LB,01-701-1015,240,CREAT,Creatinine,CHEMISTRY,0.9,mg/dL,0.7,1.4,79.56,79.56,umol/L,62,124,NORMAL,,11,WEEK 20,140,TREATMENT,2014-05-21T10:58,140
CDISCPILOT01,LB,01-701-1015,271,CREAT,Creatinine,CHEMISTRY,0.9,mg/dL,0.7,1.4,79.56,79.56,umol/L,62,124,NORMAL,,12,WEEK 24,168,TREATMENT,2014-06-18T13:00,168
CDISCPILOT01,LB,01-701-1015,305,CREAT,Creatinine,CHEMISTRY,1.0,mg/dL,0.7,1.4,88.4,88.4,umol/L,62,124,NORMAL,,13,WEEK 26,182,TREATMENT,2014-07-02T11:45,182
CDISCPILOT01,LB,01-701-1015,16,GGT,Gamma Glutamyl Transferase,CHEMISTRY,15,U/L,5,50,15,15,U/L,5,50,NORMAL,Y,1,SCREENING 1,-7,SCREENING,2013-12-26T14:45,-7
CDISCPILOT01,LB,01-701-1015,53,GGT,Gamma Glutamyl Transferase,CHEMISTRY,19,U/L,5,50,19,19,U/L,5,50,NORMAL,,4,WEEK 2,14,TREATMENT,2014-01-16T13:17,15
CDISCPILOT01,LB,01-701-1015,87,GGT,Gamma Glutamyl Transferase,CHEMISTRY,15,U/L,5,50,15,15,U/L,5,50,NORMAL,,5,WEEK 4,28,TREATMENT,2014-01-30T08:50,29
CDISCPILOT01,LB,01-701-1015,117,GGT,Gamma Glutamyl Transferase,CHEMISTRY,14,U/L,5,50,14,14,U/L,5,50,NORMAL,,7,WEEK 6,42,TREATMENT,2014-02-12T12:56,42
CDISCPILOT01,LB,01-701-1015,147,GGT,Gamma Glutamyl Transferase,CHEMISTRY,14,U/L,5,50,14,14,U/L,5,50,NORMAL,,8,WEEK 8,56,TREATMENT,2014-03-05T12:25,63
CDISCPILOT01,LB,01-701-1015,178,GGT,Gamma Glutamyl Transferase,CHEMISTRY,23,U/L,5,50,23,23,U/L,5,50,NORMAL,,9,WEEK 12,84,TREATMENT,2014-03-26T15:15,84
CDISCPILOT01,LB,01-701-1015,212,GGT,Gamma Glutamyl Transferase,CHEMISTRY,15,U/L,5,50,15,15,U/L,5,50,NORMAL,,10,WEEK 16,112,TREATMENT,2014-05-07T11:21,126
CDISCPILOT01,LB,01-701-1015,242,GGT,Gamma Glutamyl Transferase,CHEMISTRY,17,U/L,5,50,17,17,U/L,5,50,NORMAL,,11,WEEK 20,140,TREATMENT,2014-05-21T10:58,140
CDISCPILOT01,LB,01-701-1015,273,GGT,Gamma Glutamyl Transferase,CHEMISTRY,20,U/L,5,50,20,20,U/L,5,50,NORMAL,,12,WEEK 24,168,TREATMENT,2014-06-18T13:00,168
CDISCPILOT01,LB,01-701-1015,307,GGT,Gamma Glutamyl Transferase,CHEMISTRY,16,U/L,5,50,16,16,U/L,5,50,NORMAL,,13,WEEK 26,182,TREATMENT,2014-07-02T11:45,182
CDISCPILOT01,LB,01-701-1015,17,GLUC,Glucose,CHEMISTRY,85,mg/dL,50,250,4.71835,4.71835,mmol/L,2.8,13.9,NORMAL,Y,1,SCREENING 1,-7,SCREENING,2013-12-26T14:45,-7
CDISCPILOT01,LB,01-701-1015,54,GLUC,Glucose,CHEMISTRY,84,mg/dL,50,250,4.66284,4.66284,mmol/L,2.8,13.9,NORMAL,,4,WEEK 2,14,TREATMENT,2014-01-16T13:17,15
CDISCPILOT01,LB,01-701-1015,88,GLUC,Glucose,CHEMISTRY,79,mg/dL,50,250,4.38529,4.38529,mmol/L,2.8,13.9,NORMAL,,5,WEEK 4,28,TREATMENT,2014-01-30T08:50,29
CDISCPILOT01,LB,01-701-1015,118,GLUC,Glucose,CHEMISTRY,92,mg/dL,50,250,5.10692,5.10692,mmol/L,2.8,13.9,NORMAL,,7,WEEK 6,42,TREATMENT,2014-02-12T12:56,42
CDISCPILOT01,LB,01-701-1015,148,GLUC,Glucose,CHEMISTRY,82,mg/dL,50,250,4.55182,4.55182,mmol/L,2.8,13.9,NORMAL,,8,WEEK 8,56,TREATMENT,2014-03-05T12:25,63
CDISCPILOT01,LB,01-701-1015,179,GLUC,Glucose,CHEMISTRY,87,mg/dL,50,250,4.82937,4.82937,mmol/L,2.8,13.9,NORMAL,,9,WEEK 12,84,TREATMENT,2014-03-26T15:15,84
CDISCPILOT01,LB,01-701-1015,213,GLUC,Glucose,CHEMISTRY,86,mg/dL,50,250,4.77386,4.77386,mmol/L,2.8,13.9,NORMAL,,10,WEEK 16,112,TREATMENT,2014-05-07T11:21,126
CDISCPILOT01,LB,01-701-1015,243,GLUC,Glucose,CHEMISTRY,88,mg/dL,50,250,4.88488,4.88488,mmol/L,2.8,13.9,NORMAL,,11,WEEK 20,140,TREATMENT,2014-05-21T10:58,140
CDISCPILOT01,LB,01-701-1015,274,GLUC,Glucose,CHEMISTRY,81,mg/dL,50,250,4.49631,4.49631,mmol/L,2.8,13.9,NORMAL,,12,WEEK 24,168,TREATMENT,2014-06-18T13:00,168
CDISCPILOT01,LB,01-701-1015,308,GLUC,Glucose,CHEMISTRY,92,mg/dL,50,250,5.10692,5.10692,mmol/L,2.8,13.9,NORMAL,,13,WEEK 26,182,TREATMENT,2014-07-02T11:45,182
CDISCPILOT01,LB,01-701-1015,20,K,Potassium,CHEMISTRY,4.5,mEq/L,3.4,5.4,4.5,4.5,mmol/L,3.4,5.4,NORMAL,Y,1,SCREENING 1,-7,SCREENING,2013-12-26T14:45,-7
CDISCPILOT01,LB,01-701-1015,57,K,Potassium,CHEMISTRY,4.4,mEq/L,3.4,5.4,4.4,4.4,mmol/L,3.4,5.4,NORMAL,,4,WEEK 2,14,TREATMENT,2014-01-16T13:17,15
CDISCPILOT01,LB,01-701-1015,91,K,Potassium,CHEMISTRY,4.5,mEq/L,3.4,5.4,4.5,4.5,mmol/L,3.4,5.4,NORMAL,,5,WEEK 4,28,TREATMENT,2014-01-30T08:50,29
CDISCPILOT01,LB,01-701-1015,121,K,Potassium,CHEMISTRY,4.6,mEq/L,3.4,5.4,4.6,4.6,mmol/L,3.4,5.4,NORMAL,,7,WEEK 6,42,TREATMENT,2014-02-12T12:56,42
CDISCPILOT01,LB,01-701-1015,151,K,Potassium,CHEMISTRY,4.1,mEq/L,3.4,5.4,4.1,4.1,mmol/L,3.4,5.4,NORMAL,,8,WEEK 8,56,TREATMENT,2014-03-05T12:25,63
CDISCPILOT01,LB,01-701-1015,182,K,Potassium,CHEMISTRY,3.6,mEq/L,3.4,5.4,3.6,3.6,mmol/L,3.4,5.4,NORMAL,,9,WEEK 12,84,TREATMENT,2014-03-26T15:15,84
CDISCPILOT01,LB,01-701-1015,216,K,Potassium,CHEMISTRY,4.1,mEq/L,3.4,5.4,4.1,4.1,mmol/L,3.4,5.4,NORMAL,,10,WEEK 16,112,TREATMENT,2014-05-07T11:21,126
CDISCPILOT01,LB,01-701-1015,246,K,Potassium,CHEMISTRY,4.3,mEq/L,3.4,5.4,4.3,4.3,mmol/L,3.4,5.4,NORMAL,,11,WEEK 20,140,TREATMENT,2014-05-21T10:58,140
CDISCPILOT01,LB,01-701-1015,277,K,Potassium,CHEMISTRY,4.1,mEq/L,3.4,5.4,4.1,4.1,mmol/L,3.4,5.4,NORMAL,,12,WEEK 24,168,TREATMENT,2014-06-18T13:00,168
CDISCPILOT01,LB,01-701-1015,311,K,Potassium,CHEMISTRY,4.5,mEq/L,3.4,5.4,4.5,4.5,mmol/L,3.4,5.4,NORMAL,,13,WEEK 26,182,TREATMENT,2014-07-02T11:45,182
CDISCPILOT01,LB,01-701-1015,27,SODIUM,Sodium,CHEMISTRY,140,mEq/L,135,145,140,140,mmol/L,135,145,NORMAL,Y,1,SCREENING 1,-7,SCREENING,2013-12-26T14:45,-7
CDISCPILOT01,LB,01-701-1015,64,SODIUM,Sodium,CHEMISTRY,142,mEq/L,135,145,142,142,mmol/L,135,145,NORMAL,,4,WEEK 2,14,TREATMENT,2014-01-16T13:17,15
CDISCPILOT01,LB,01-701-1015,97,SODIUM,Sodium,CHEMISTRY,140,mEq/L,135,145,140,140,mmol/L,135,145,NORMAL,,5,WEEK 4,28,TREATMENT,2014-01-30T08:50,29
CDISCPILOT01,LB,01-701-1015,127,SODIUM,Sodium,CHEMISTRY,140,mEq/L,135,145,140,140,mmol/L,135,145,NORMAL,,7,WEEK 6,42,TREATMENT,2014-02-12T12:56,42
CDISCPILOT01,LB,01-701-1015,157,SODIUM,Sodium,CHEMISTRY,141,mEq/L,135,145,141,141,mmol/L,135,145,NORMAL,,8,WEEK 8,56,TREATMENT,2014-03-05T12:25,63
CDISCPILOT01,LB,01-701-1015,189,SODIUM,Sodium,CHEMISTRY,139,mEq/L,135,145,139,139,mmol/L,135,145,NORMAL,,9,WEEK 12,84,TREATMENT,2014-03-26T15:15,84
CDISCPILOT01,LB,01-701-1015,222,SODIUM,Sodium,CHEMISTRY,141,mEq/L,135,145,141,141,mmol/L,135,145,NORMAL,,10,WEEK 16,112,TREATMENT,2014-05-07T11:21,126
CDISCPILOT01,LB,01-701-1015,252,SODIUM,Sodium,CHEMISTRY,142,mEq/L,135,145,142,142,mmol/L,135,145,NORMAL,,11,WEEK 20,140,TREATMENT,2014-05-21T10:58,140
CDISCPILOT01,LB,01-701-1015,284,SODIUM,Sodium,CHEMISTRY,140,mEq/L,135,145,140,140,mmol/L,135,145,NORMAL,,12,WEEK 24,168,TREATMENT,2014-06-18T13:00,168
CDISCPILOT01,LB,01-701-1015,317,SODIUM,Sodium,CHEMISTRY,140,mEq/L,135,145,140,140,mmol/L,135,145,NORMAL,,13,WEEK 26,182,TREATMENT,2014-07-02T11:45,182
CDISCPILOT01,LB,01-701-1015,29,PHOS,Phosphate,CHEMISTRY,3.8,mg/dL,2.2,5.1,1.22702,1.22702,mmol/L,0.71,1.65,NORMAL,Y,1,SCREENING 1,-7,SCREENING,2013-12-26T14:45,-7
CDISCPILOT01,LB,01-701-1015,66,PHOS,Phosphate,CHEMISTRY,3.9,mg/dL,2.2,5.1,1.25931,1.25931,mmol/L,0.71,1.65,NORMAL,,4,WEEK 2,14,TREATMENT,2014-01-16T13:17,15
CDISCPILOT01,LB,01-701-1015,98,PHOS,Phosphate,CHEMISTRY,3.5,mg/dL,2.2,5.1,1.13015,1.13015,mmol/L,0.71,1.65,NORMAL,,5,WEEK 4,28,TREATMENT,2014-01-30T08:50,29
CDISCPILOT01,LB,01-701-1015,128,PHOS,Phosphate,CHEMISTRY,3.8,mg/dL,2.2,5.1,1.22702,1.22702,mmol/L,0.71,1.65,NORMAL,,7,WEEK 6,42,TREATMENT,2014-02-12T12:56,42
CDISCPILOT01,LB,01-701-1015,158,PHOS,Phosphate,CHEMISTRY,3.6,mg/dL,2.2,5.1,1.16244,1.16244,mmol/L,0.71,1.65,NORMAL,,8,WEEK 8,56,TREATMENT,2014-03-05T12:25,63
CDISCPILOT01,LB,01-701-1015,191,PHOS,Phosphate,CHEMISTRY,3.8,mg/dL,2.2,5.1,1.22702,1.22702,mmol/L,0.71,1.65,NORMAL,,9,WEEK 12,84,TREATMENT,2014-03-26T15:15,84
CDISCPILOT01,LB,01-701-1015,223,PHOS,Phosphate,CHEMISTRY,4.0,mg/dL,2.2,5.1,1.2916,1.2916,mmol/L,0.71,1.65,NORMAL,,10,WEEK 16,112,TREATMENT,2014-05-07T11:21,126
CDISCPILOT01,LB,01-701-1015,253,PHOS,Phosphate,CHEMISTRY,3.4,mg/dL,2.2,5.1,1.09786,1.09786,mmol/L,0.71,1.65,NORMAL,,11,WEEK 20,140,TREATMENT,2014-05-21T10:58,140
CDISCPILOT01,LB,01-701-1015,286,PHOS,Phosphate,CHEMISTRY,3.9,mg/dL,2.2,5.1,1.25931,1.25931,mmol/L,0.71,1.65,NORMAL,,12,WEEK 24,168,TREATMENT,2014-06-18T13:00,168
CDISCPILOT01,LB,01-701-1015,318,PHOS,Phosphate,CHEMISTRY,4.2,mg/dL,2.2,5.1,1.35618,1.35618,mmol/L,0.71,1.65,NORMAL,,13,WEEK 26,182,TREATMENT,2014-07-02T11:45,182
CDISCPILOT01,LB,01-701-1015,31,PROT,Protein,CHEMISTRY,6.1,g/dL,6,8,61,61,g/L,60,80,NORMAL,Y,1,SCREENING 1,-7,SCREENING,2013-12-26T14:45,-7
CDISCPILOT01,LB,01-701-1015,68,PROT,Protein,CHEMISTRY,7.7,g/dL,6,8,77,77,g/L,60,80,NORMAL,,4,WEEK 2,14,TREATMENT,2014-01-16T13:17,15
CDISCPILOT01,LB,01-701-1015,100,PROT,Protein,CHEMISTRY,6.9,g/dL,6,8,69,69,g/L,60,80,NORMAL,,5,WEEK 4,28,TREATMENT,2014-01-30T08:50,29
CDISCPILOT01,LB,01-701-1015,130,PROT,Protein,CHEMISTRY,6.8,g/dL,6,8,68,68,g/L,60,80,NORMAL,,7,WEEK 6,42,TREATMENT,2014-02-12T12:56,42
CDISCPILOT01,LB,01-701-1015,160,PROT,Protein,CHEMISTRY,6.9,g/dL,6,8,69,69,g/L,60,80,NORMAL,,8,WEEK 8,56,TREATMENT,2014-03-05T12:25,63
CDISCPILOT01,LB,01-701-1015,193,PROT,Protein,CHEMISTRY,7.0,g/dL,6,8,70,70,g/L,60,80,NORMAL,,9,WEEK 12,84,TREATMENT,2014-03-26T15:15,84
CDISCPILOT01,LB,01-701-1015,225,PROT,Protein,CHEMISTRY,6.8,g/dL,6,8,68,68,g/L,60,80,NORMAL,,10,WEEK 16,112,TREATMENT,2014-05-07T11:21,126
CDISCPILOT01,LB,01-701-1015,255,PROT,Protein,CHEMISTRY,6.8,g/dL,6,8,68,68,g/L,60,80,NORMAL,,11,WEEK 20,140,TREATMENT,2014-05-21T10:58,140
CDISCPILOT01,LB,01-701-1015,288,PROT,Protein,CHEMISTRY,6.6,g/dL,6,8,66,66,g/L,60,80,NORMAL,,12,WEEK 24,168,TREATMENT,2014-06-18T13:00,168
CDISCPILOT01,LB,01-701-1015,320,PROT,Protein,CHEMISTRY,6.9,g/dL,6,8,69,69,g/L,60,80,NORMAL,,13,WEEK 26,182,TREATMENT,2014-07-02T11:45,182
CDISCPILOT01,LB,01-701-1015,35,URATE,Urate,CHEMISTRY,4.5,mg/dL,2.5,7.5,267.66,267.66,umol/L,149,446,NORMAL,Y,1,SCREENING 1,-7,SCREENING,2013-12-26T14:45,-7
CDISCPILOT01,LB,01-701-1015,71,URATE,Urate,CHEMISTRY,4.9,mg/dL,2.5,7.5,291.452,291.452,umol/L,149,446,NORMAL,,4,WEEK 2,14,TREATMENT,2014-01-16T13:17,15
CDISCPILOT01,LB,01-701-1015,102,URATE,Urate,CHEMISTRY,4.4,mg/dL,2.5,7.5,261.712,261.712,umol/L,149,446,NORMAL,,5,WEEK 4,28,TREATMENT,2014-01-30T08:50,29
CDISCPILOT01,LB,01-701-1015,132,URATE,Urate,CHEMISTRY,4.6,mg/dL,2.5,7.5,273.608,273.608,umol/L,149,446,NORMAL,,7,WEEK 6,42,TREATMENT,2014-02-12T12:56,42
CDISCPILOT01,LB,01-701-1015,162,URATE,Urate,CHEMISTRY,4.6,mg/dL,2.5,7.5,273.608,273.608,umol/L,149,446,NORMAL,,8,WEEK 8,56,TREATMENT,2014-03-05T12:25,63
CDISCPILOT01,LB,01-701-1015,196,URATE,Urate,CHEMISTRY,4.4,mg/dL,2.5,7.5,261.712,261.712,umol/L,149,446,NORMAL,,9,WEEK 12,84,TREATMENT,2014-03-26T15:15,84
CDISCPILOT01,LB,01-701-1015,227,URATE,Urate,CHEMISTRY,4.3,mg/dL,2.5,7.5,255.764,255.764,umol/L,149,446,NORMAL,,10,WEEK 16,112,TREATMENT,2014-05-07T11:21,126
CDISCPILOT01,LB,01-701-1015,257,URATE,Urate,CHEMISTRY,4.7,mg/dL,2.5,7.5,279.556,279.556,umol/L,149,446,NORMAL,,11,WEEK 20,140,TREATMENT,2014-05-21T10:58,140
CDISCPILOT01,LB,01-701-1015,291,URATE,Urate,CHEMISTRY,5.1,mg/dL,2.5,7.5,303.348,303.348,umol/L,149,446,NORMAL,,12,WEEK 24,168,TREATMENT,2014-06-18T13:00,168
CDISCPILOT01,LB,01-701-1015,322,URATE,Urate,CHEMISTRY,5.2,mg/dL,2.5,7.5,309.296,309.296,umol/L,149,446,NORMAL,,13,WEEK 26,182,TREATMENT,2014-07-02T11:45,182
CDISCPILOT01,LB,01-701-1023,1,ALB,Albumin,CHEMISTRY,4.0,g/dL,3.3,4.9,40,40,g/L,33,49,NORMAL,Y,1,SCREENING 1,-7,SCREENING,2012-07-22T12:13,-14
CDISCPILOT01,LB,01-701-1023,38,ALB,Albumin,CHEMISTRY,3.6,g/dL,3.3,4.9,36,36,g/L,33,49,NORMAL,,4,WEEK 2,14,TREATMENT,2012-08-27T15:47,23
CDISCPILOT01,LB,01-701-1023,73,ALB,Albumin,CHEMISTRY,3.5,g/dL,3.3,4.9,35,35,g/L,33,49,NORMAL,,5,WEEK 4,28,TREATMENT,2012-09-02T10:15,29
CDISCPILOT01,LB,01-701-1023,2,ALP,Alkaline Phosphatase,CHEMISTRY,98,U/L,35,115,98,98,U/L,35,115,NORMAL,Y,1,SCREENING 1,-7,SCREENING,2012-07-22T12:13,-14
CDISCPILOT01,LB,01-701-1023,39,ALP,Alkaline Phosphatase,CHEMISTRY,90,U/L,35,115,90,90,U/L,35,115,NORMAL,,4,WEEK 2,14,TREATMENT,2012-08-27T15:47,23
CDISCPILOT01,LB,01-701-1023,74,ALP,Alkaline Phosphatase,CHEMISTRY,99,U/L,35,115,99,99,U/L,35,115,NORMAL,,5,WEEK 4,28,TREATMENT,2012-09-02T10:15,29
CDISCPILOT01,LB,01-701-1023,3,ALT,Alanine Aminotransferase,CHEMISTRY,23,U/L,6,43,23,23,U/L,6,43,NORMAL,Y,1,SCREENING 1,-7,SCREENING,2012-07-22T12:13,-14
CDISCPILOT01,LB,01-701-1023,40,ALT,Alanine Aminotransferase,CHEMISTRY,30,U/L,6,43,30,30,U/L,6,43,NORMAL,,4,WEEK 2,14,TREATMENT,2012-08-27T15:47,23
CDISCPILOT01,LB,01-701-1023,75,ALT,Alanine Aminotransferase,CHEMISTRY,38,U/L,6,43,38,38,U/L,6,43,NORMAL,,5,WEEK 4,28,TREATMENT,2012-09-02T10:15,29
CDISCPILOT01,LB,01-701-1023,4,AST,Aspartate Aminotransferase,CHEMISTRY,21,U/L,11,36,21,21,U/L,11,36,NORMAL,Y,1,SCREENING 1,-7,SCREENING,2012-07-22T12:13,-14
CDISCPILOT01,LB,01-701-1023,41,AST,Aspartate Aminotransferase,CHEMISTRY,25,U/L,11,36,25,25,U/L,11,36,NORMAL,,4,WEEK 2,14,TREATMENT,2012-08-27T15:47,23
CDISCPILOT01,LB,01-701-1023,76,AST,Aspartate Aminotransferase,CHEMISTRY,30,U/L,11,36,30,30,U/L,11,36,NORMAL,,5,WEEK 4,28,TREATMENT,2012-09-02T10:15,29
CDISCPILOT01,LB,01-701-1023,6,BILI,Bilirubin,CHEMISTRY,0.7,mg/dL,0.2,1.2,11.97,11.97,umol/L,3,21,NORMAL,Y,1,SCREENING 1,-7,SCREENING,2012-07-22T12:13,-14
CDISCPILOT01,LB,01-701-1023,43,BILI,Bilirubin,CHEMISTRY,0.4,mg/dL,0.2,1.2,6.84,6.84,umol/L,3,21,NORMAL,,4,WEEK 2,14,TREATMENT,2012-08-27T15:47,23
CDISCPILOT01,LB,01-701-1023,78,BILI,Bilirubin,CHEMISTRY,0.5,mg/dL,0.2,1.2,8.55,8.55,umol/L,3,21,NORMAL,,5,WEEK 4,28,TREATMENT,2012-09-02T10:15,29
CDISCPILOT01,LB,01-701-1023,7,UREAN,Urea Nitrogen,CHEMISTRY,18,mg/dL,4,24,6.426,6.426,mmol/L,1.4,8.6,NORMAL,Y,1,SCREENING 1,-7,SCREENING,2012-07-22T12:13,-14
CDISCPILOT01,LB,01-701-1023,44,UREAN,Urea Nitrogen,CHEMISTRY,21,mg/dL,4,24,7.497,7.497,mmol/L,1.4,8.6,NORMAL,,4,WEEK 2,14,TREATMENT,2012-08-27T15:47,23
CDISCPILOT01,LB,01-701-1023,79,UREAN,Urea Nitrogen,CHEMISTRY,17,mg/dL,4,24,6.069,6.069,mmol/L,1.4,8.6,NORMAL,,5,WEEK 4,28,TREATMENT,2012-09-02T10:15,29
CDISCPILOT01,LB,01-701-1023,8,CA,Calcium,CHEMISTRY,9.9,mg/dL,8.4,10.3,2.47005,2.47005,mmol/L,2.1,2.57,NORMAL,Y,1,SCREENING 1,-7,SCREENING,2012-07-22T12:13,-14
CDISCPILOT01,LB,01-701-1023,45,CA,Calcium,CHEMISTRY,9.4,mg/dL,8.4,10.3,2.3453,2.3453,mmol/L,2.1,2.57,NORMAL,,4,WEEK 2,14,TREATMENT,2012-08-27T15:47,23
CDISCPILOT01,LB,01-701-1023,80,CA,Calcium,CHEMISTRY,9.5,mg/dL,8.4,10.3,2.37025,2.37025,mmol/L,2.1,2.57,NORMAL,,5,WEEK 4,28,TREATMENT,2012-09-02T10:15,29
CDISCPILOT01,LB,01-701-1023,9,CHOL,Cholesterol,CHEMISTRY,262,mg/dL,149,286,6.77532,6.77532,mmol/L,3.85,7.4,NORMAL,Y,1,SCREENING 1,-7,SCREENING,2012-07-22T12:13,-14
CDISCPILOT01,LB,01-701-1023,46,CHOL,Cholesterol,CHEMISTRY,237,mg/dL,149,286,6.12882,6.12882,mmol/L,3.85,7.4,NORMAL,,4,WEEK 2,14,TREATMENT,2012-08-27T15:47,23
CDISCPILOT01,LB,01-701-1023,81,CHOL,Cholesterol,CHEMISTRY,235,mg/dL,149,286,6.0771,6.0771,mmol/L,3.85,7.4,NORMAL,,5,WEEK 4,28,TREATMENT,2012-09-02T10:15,29
CDISCPILOT01,LB,01-701-1023,10,CK,Creatine Kinase,CHEMISTRY,85,U/L,22,198,85,85,U/L,22,198,NORMAL,Y,1,SCREENING 1,-7,SCREENING,2012-07-22T12:13,-14
CDISCPILOT01,LB,01-701-1023,47,CK,Creatine Kinase,CHEMISTRY,77,U/L,22,198,77,77,U/L,22,198,NORMAL,,4,WEEK 2,14,TREATMENT,2012-08-27T15:47,23
CDISCPILOT01,LB,01-701-1023,82,CK,Creatine Kinase,CHEMISTRY,76,U/L,22,198,76,76,U/L,22,198,NORMAL,,5,WEEK 4,28,TREATMENT,2012-09-02T10:15,29
CDISCPILOT01,LB,01-701-1023,11,CL,Chloride,CHEMISTRY,106,mEq/L,94,112,106,106,mmol/L,94,112,NORMAL,Y,1,SCREENING 1,-7,SCREENING,2012-07-22T12:13,-14
CDISCPILOT01,LB,01-701-1023,48,CL,Chloride,CHEMISTRY,108,mEq/L,94,112,108,108,mmol/L,94,112,NORMAL,,4,WEEK 2,14,TREATMENT,2012-08-27T15:47,23
CDISCPILOT01,LB,01-701-1023,83,CL,Chloride,CHEMISTRY,106,mEq/L,94,112,106,106,mmol/L,94,112,NORMAL,,5,WEEK 4,28,TREATMENT,2012-09-02T10:15,29
CDISCPILOT01,LB,01-701-1023,13,CREAT,Creatinine,CHEMISTRY,1.4,mg/dL,0.8,1.6,123.76,123.76,umol/L,71,141,NORMAL,Y,1,SCREENING 1,-7,SCREENING,2012-07-22T12:13,-14
CDISCPILOT01,LB,01-701-1023,50,CREAT,Creatinine,CHEMISTRY,1.5,mg/dL,0.8,1.6,132.6,132.6,umol/L,71,141,NORMAL,,4,WEEK 2,14,TREATMENT,2012-08-27T15:47,23
CDISCPILOT01,LB,01-701-1023,85,CREAT,Creatinine,CHEMISTRY,1.3,mg/dL,0.8,1.6,114.92,114.92,umol/L,71,141,NORMAL,,5,WEEK 4,28,TREATMENT,2012-09-02T10:15,29
CDISCPILOT01,LB,01-701-1023,15,GGT,Gamma Glutamyl Transferase,CHEMISTRY,18,U/L,10,50,18,18,U/L,10,50,NORMAL,Y,1,SCREENING 1,-7,SCREENING,2012-07-22T12:13,-14
CDISCPILOT01,LB,01-701-1023,52,GGT,Gamma Glutamyl Transferase,CHEMISTRY,22,U/L,10,50,22,22,U/L,10,50,NORMAL,,4,WEEK 2,14,TREATMENT,2012-08-27T15:47,23
CDISCPILOT01,LB,01-701-1023,87,GGT,Gamma Glutamyl Transferase,CHEMISTRY,22,U/L,10,50,22,22,U/L,10,50,NORMAL,,5,WEEK 4,28,TREATMENT,2012-09-02T10:15,29
CDISCPILOT01,LB,01-701-1023,16,GLUC,Glucose,CHEMISTRY,96,mg/dL,50,250,5.32896,5.32896,mmol/L,2.8,13.9,NORMAL,Y,1,SCREENING 1,-7,SCREENING,2012-07-22T12:13,-14
CDISCPILOT01,LB,01-701-1023,53,GLUC,Glucose,CHEMISTRY,104,mg/dL,50,250,5.77304,5.77304,mmol/L,2.8,13.9,NORMAL,,4,WEEK 2,14,TREATMENT,2012-08-27T15:47,23
CDISCPILOT01,LB,01-701-1023,88,GLUC,Glucose,CHEMISTRY,98,mg/dL,50,250,5.43998,5.43998,mmol/L,2.8,13.9,NORMAL,,5,WEEK 4,28,TREATMENT,2012-09-02T10:15,29
CDISCPILOT01,LB,01-701-1023,19,K,Potassium,CHEMISTRY,4.9,mEq/L,3.4,5.4,4.9,4.9,mmol/L,3.4,5.4,NORMAL,Y,1,SCREENING 1,-7,SCREENING,2012-07-22T12:13,-14
CDISCPILOT01,LB,01-701-1023,56,K,Potassium,CHEMISTRY,4.8,mEq/L,3.4,5.4,4.8,4.8,mmol/L,3.4,5.4,NORMAL,,4,WEEK 2,14,TREATMENT,2012-08-27T15:47,23
CDISCPILOT01,LB,01-701-1023,91,K,Potassium,CHEMISTRY,4.7,mEq/L,3.4,5.4,4.7,4.7,mmol/L,3.4,5.4,NORMAL,,5,WEEK 4,28,TREATMENT,2012-09-02T10:15,29
CDISCPILOT01,LB,01-701-1023,26,SODIUM,Sodium,CHEMISTRY,142,mEq/L,135,145,142,142,mmol/L,135,145,NORMAL,Y,1,SCREENING 1,-7,SCREENING,2012-07-22T12:13,-14
CDISCPILOT01,LB,01-701-1023,63,SODIUM,Sodium,CHEMISTRY,140,mEq/L,135,145,140,140,mmol/L,135,145,NORMAL,,4,WEEK 2,14,TREATMENT,2012-08-27T15:47,23
CDISCPILOT01,LB,01-701-1023,98,SODIUM,Sodium,CHEMISTRY,141,mEq/L,135,145,141,141,mmol/L,135,145,NORMAL,,5,WEEK 4,28,TREATMENT,2012-09-02T10:15,29
CDISCPILOT01,LB,01-701-1023,28,PHOS,Phosphate,CHEMISTRY,4.0,mg/dL,2.2,5.1,1.2916,1.2916,mmol/L,0.71,1.65,NORMAL,Y,1,SCREENING 1,-7,SCREENING,2012-07-22T12:13,-14
CDISCPILOT01,LB,01-701-1023,65,PHOS,Phosphate,CHEMISTRY,3.7,mg/dL,2.2,5.1,1.19473,1.19473,mmol/L,0.71,1.65,NORMAL,,4,WEEK 2,14,TREATMENT,2012-08-27T15:47,23
CDISCPILOT01,LB,01-701-1023,100,PHOS,Phosphate,CHEMISTRY,3.4,mg/dL,2.2,5.1,1.09786,1.09786,mmol/L,0.71,1.65,NORMAL,,5,WEEK 4,28,TREATMENT,2012-09-02T10:15,29
CDISCPILOT01,LB,01-701-1023,30,PROT,Protein,CHEMISTRY,7.4,g/dL,6,8,74,74,g/L,60,80,NORMAL,Y,1,SCREENING 1,-7,SCREENING,2012-07-22T12:13,-14
CDISCPILOT01,LB,01-701-1023,67,PROT,Protein,CHEMISTRY,6.9,g/dL,6,8,69,69,g/L,60,80,NORMAL,,4,WEEK 2,14,TREATMENT,2012-08-27T15:47,23
CDISCPILOT01,LB,01-701-1023,102,PROT,Protein,CHEMISTRY,7.1,g/dL,6,8,71,71,g/L,60,80,NORMAL,,5,WEEK 4,28,TREATMENT,2012-09-02T10:15,29
CDISCPILOT01,LB,01-701-1023,34,URATE,Urate,CHEMISTRY,6.7,mg/dL,2.5,7.5,398.516,398.516,umol/L,149,446,NORMAL,Y,1,SCREENING 1,-7,SCREENING,2012-07-22T12:13,-14
CDISCPILOT01,LB,01-701-1023,70,URATE,Urate,CHEMISTRY,6.2,mg/dL,2.5,7.5,368.776,368.776,umol/L,149,446,NORMAL,,4,WEEK 2,14,TREATMENT,2012-08-27T15:47,23
CDISCPILOT01,LB,01-701-1023,105,URATE,Urate,CHEMISTRY,6.1,mg/dL,2.5,7.5,362.828,362.828,umol/L,149,446,NORMAL,,5,WEEK 4,28,TREATMENT,2012-09-02T10:15,29
CDISCPILOT01,LB,01-701-1028,1,ALB,Albumin,CHEMISTRY,4.4,g/dL,3.5,4.6,44,44,g/L,35,46,NORMAL,Y,1,SCREENING 1,-7,SCREENING,2013-07-11T12:02,-8
CDISCPILOT01,LB,01-701-1028,38,ALB,Albumin,CHEMISTRY,4.2,g/dL,3.5,4.6,42,42,g/L,35,46,NORMAL,,4,WEEK 2,14,TREATMENT,2013-08-01T09:15,14
CDISCPILOT01,LB,01-701-1028,73,ALB,Albumin,CHEMISTRY,4.1,g/dL,3.5,4.6,41,41,g/L,35,46,NORMAL,,5,WEEK 4,28,TREATMENT,2013-08-14T13:24,27
CDISCPILOT01,LB,01-701-1028,103,ALB,Albumin,CHEMISTRY,4.0,g/dL,3.5,4.6,40,40,g/L,35,46,NORMAL,,7,WEEK 6,42,TREATMENT,2013-08-29T11:54,42
CDISCPILOT01,LB,01-701-1028,133,ALB,Albumin,CHEMISTRY,3.9,g/dL,3.5,4.6,39,39,g/L,35,46,NORMAL,,8,WEEK 8,56,TREATMENT,2013-09-10T09:13,54
CDISCPILOT01,LB,01-701-1028,163,ALB,Albumin,CHEMISTRY,4.4,g/dL,3.5,4.6,44,44,g/L,35,46,NORMAL,,9,WEEK 12,84,TREATMENT,2013-10-09T08:42,83
CDISCPILOT01,LB,01-701-1028,198,ALB,Albumin,CHEMISTRY,3.7,g/dL,3.5,4.6,37,37,g/L,35,46,NORMAL,,10,WEEK 16,112,TREATMENT,2013-11-06T10:08,111
CDISCPILOT01,LB,01-701-1028,230,ALB,Albumin,CHEMISTRY,4.0,g/dL,3.5,4.6,40,40,g/L,35,46,NORMAL,,11,WEEK 20,140,TREATMENT,2013-12-04T15:10,139
CDISCPILOT01,LB,01-701-1028,261,ALB,Albumin,CHEMISTRY,4.2,g/dL,3.5,4.6,42,42,g/L,35,46,NORMAL,,12,WEEK 24,168,TREATMENT,2014-01-06T10:00,172
CDISCPILOT01,LB,01-701-1028,298,ALB,Albumin,CHEMISTRY,4.5,g/dL,3.5,4.6,45,45,g/L,35,46,NORMAL,,13,WEEK 26,182,TREATMENT,2014-01-14T11:10,180
CDISCPILOT01,LB,01-701-1028,2,ALP,Alkaline Phosphatase,CHEMISTRY,44,U/L,35,115,44,44,U/L,35,115,NORMAL,Y,1,SCREENING 1,-7,SCREENING,2013-07-11T12:02,-8
CDISCPILOT01,LB,01-701-1028,39,ALP,Alkaline Phosphatase,CHEMISTRY,46,U/L,35,115,46,46,U/L,35,115,NORMAL,,4,WEEK 2,14,TREATMENT,2013-08-01T09:15,14
CDISCPILOT01,LB,01-701-1028,74,ALP,Alkaline Phosphatase,CHEMISTRY,38,U/L,35,115,38,38,U/L,35,115,NORMAL,,5,WEEK 4,28,TREATMENT,2013-08-14T13:24,27
CDISCPILOT01,LB,01-701-1028,104,ALP,Alkaline Phosphatase,CHEMISTRY,40,U/L,35,115,40,40,U/L,35,115,NORMAL,,7,WEEK 6,42,TREATMENT,2013-08-29T11:54,42
CDISCPILOT01,LB,01-701-1028,134,ALP,Alkaline Phosphatase,CHEMISTRY,40,U/L,35,115,40,40,U/L,35,115,NORMAL,,8,WEEK 8,56,TREATMENT,2013-09-10T09:13,54
CDISCPILOT01,LB,01-701-1028,164,ALP,Alkaline Phosphatase,CHEMISTRY,41,U/L,35,115,41,41,U/L,35,115,NORMAL,,9,WEEK 12,84,TREATMENT,2013-10-09T08:42,83
CDISCPILOT01,LB,01-701-1028,199,ALP,Alkaline Phosphatase,CHEMISTRY,36,U/L,35,115,36,36,U/L,35,115,NORMAL,,10,WEEK 16,112,TREATMENT,2013-11-06T10:08,111
CDISCPILOT01,LB,01-701-1028,231,ALP,Alkaline Phosphatase,CHEMISTRY,43,U/L,35,115,43,43,U/L,35,115,NORMAL,,11,WEEK 20,140,TREATMENT,2013-12-04T15:10,139
CDISCPILOT01,LB,01-701-1028,262,ALP,Alkaline Phosphatase,CHEMISTRY,47,U/L,35,115,47,47,U/L,35,115,NORMAL,,12,WEEK 24,168,TREATMENT,2014-01-06T10:00,172
CDISCPILOT01,LB,01-701-1028,299,ALP,Alkaline Phosphatase,CHEMISTRY,40,U/L,35,115,40,40,U/L,35,115,NORMAL,,13,WEEK 26,182,TREATMENT,2014-01-14T11:10,180
CDISCPILOT01,LB,01-701-1028,3,ALT,Alanine Aminotransferase,CHEMISTRY,26,U/L,6,35,26,26,U/L,6,35,NORMAL,Y,1,SCREENING 1,-7,SCREENING,2013-07-11T12:02,-8
CDISCPILOT01,LB,01-701-1028,40,ALT,Alanine Aminotransferase,CHEMISTRY,30,U/L,6,35,30,30,U/L,6,35,NORMAL,,4,WEEK 2,14,TREATMENT,2013-08-01T09:15,14
CDISCPILOT01,LB,01-701-1028,75,ALT,Alanine Aminotransferase,CHEMISTRY,29,U/L,6,35,29,29,U/L,6,35,NORMAL,,5,WEEK 4,28,TREATMENT,2013-08-14T13:24,27
CDISCPILOT01,LB,01-701-1028,105,ALT,Alanine Aminotransferase,CHEMISTRY,32,U/L,6,35,32,32,U/L,6,35,NORMAL,,7,WEEK 6,42,TREATMENT,2013-08-29T11:54,42
CDISCPILOT01,LB,01-701-1028,135,ALT,Alanine Aminotransferase,CHEMISTRY,33,U/L,6,35,33,33,U/L,6,35,NORMAL,,8,WEEK 8,56,TREATMENT,2013-09-10T09:13,54
CDISCPILOT01,LB,01-701-1028,165,ALT,Alanine Aminotransferase,CHEMISTRY,29,U/L,6,35,29,29,U/L,6,35,NORMAL,,9,WEEK 12,84,TREATMENT,2013-10-09T08:42,83
CDISCPILOT01,LB,01-701-1028,200,ALT,Alanine Aminotransferase,CHEMISTRY,24,U/L,6,35,24,24,U/L,6,35,NORMAL,,10,WEEK 16,112,TREATMENT,2013-11-06T10:08,111
CDISCPILOT01,LB,01-701-1028,232,ALT,Alanine Aminotransferase,CHEMISTRY,22,U/L,6,35,22,22,U/L,6,35,NORMAL,,11,WEEK 20,140,TREATMENT,2013-12-04T15:10,139
CDISCPILOT01,LB,01-701-1028,263,ALT,Alanine Aminotransferase,CHEMISTRY,24,U/L,6,35,24,24,U/L,6,35,NORMAL,,12,WEEK 24,168,TREATMENT,2014-01-06T10:00,172
CDISCPILOT01,LB,01-701-1028,300,ALT,Alanine Aminotransferase,CHEMISTRY,26,U/L,6,35,26,26,U/L,6,35,NORMAL,,13,WEEK 26,182,TREATMENT,2014-01-14T11:10,180
CDISCPILOT01,LB,01-701-1028,4,AST,Aspartate Aminotransferase,CHEMISTRY,24,U/L,11,36,24,24,U/L,11,36,NORMAL,Y,1,SCREENING 1,-7,SCREENING,2013-07-11T12:02,-8
CDISCPILOT01,LB,01-701-1028,41,AST,Aspartate Aminotransferase,CHEMISTRY,23,U/L,11,36,23,23,U/L,11,36,NORMAL,,4,WEEK 2,14,TREATMENT,2013-08-01T09:15,14
CDISCPILOT01,LB,01-701-1028,76,AST,Aspartate Aminotransferase,CHEMISTRY,24,U/L,11,36,24,24,U/L,11,36,NORMAL,,5,WEEK 4,28,TREATMENT,2013-08-14T13:24,27
CDISCPILOT01,LB,01-701-1028,106,AST,Aspartate Aminotransferase,CHEMISTRY,26,U/L,11,36,26,26,U/L,11,36,NORMAL,,7,WEEK 6,42,TREATMENT,2013-08-29T11:54,42
CDISCPILOT01,LB,01-701-1028,136,AST,Aspartate Aminotransferase,CHEMISTRY,28,U/L,11,36,28,28,U/L,11,36,NORMAL,,8,WEEK 8,56,TREATMENT,2013-09-10T09:13,54
CDISCPILOT01,LB,01-701-1028,166,AST,Aspartate Aminotransferase,CHEMISTRY,28,U/L,11,36,28,28,U/L,11,36,NORMAL,,9,WEEK 12,84,TREATMENT,2013-10-09T08:42,83
CDISCPILOT01,LB,01-701-1028,202,AST,Aspartate Aminotransferase,CHEMISTRY,18,U/L,11,36,18,18,U/L,11,36,NORMAL,,10,WEEK 16,112,TREATMENT,2013-11-06T10:08,111
CDISCPILOT01,LB,01-701-1028,234,AST,Aspartate Aminotransferase,CHEMISTRY,21,U/L,11,36,21,21,U/L,11,36,NORMAL,,11,WEEK 20,140,TREATMENT,2013-12-04T15:10,139
CDISCPILOT01,LB,01-701-1028,264,AST,Aspartate Aminotransferase,CHEMISTRY,23,U/L,11,36,23,23,U/L,11,36,NORMAL,,12,WEEK 24,168,TREATMENT,2014-01-06T10:00,172
CDISCPILOT01,LB,01-701-1028,301,AST,Aspartate Aminotransferase,CHEMISTRY,24,U/L,11,36,24,24,U/L,11,36,NORMAL,,13,WEEK 26,182,TREATMENT,2014-01-14T11:10,180
CDISCPILOT01,LB,01-701-1028,6,BILI,Bilirubin,CHEMISTRY,1.1,mg/dL,0.2,1.2,18.81,18.81,umol/L,3,21,NORMAL,Y,1,SCREENING 1,-7,SCREENING,2013-07-11T12:02,-8
CDISCPILOT01,LB,01-701-1028,43,BILI,Bilirubin,CHEMISTRY,0.7,mg/dL,0.2,1.2,11.97,11.97,umol/L,3,21,NORMAL,,4,WEEK 2,14,TREATMENT,2013-08-01T09:15,14
CDISCPILOT01,LB,01-701-1028,78,BILI,Bilirubin,CHEMISTRY,0.8,mg/dL,0.2,1.2,13.68,13.68,umol/L,3,21,NORMAL,,5,WEEK 4,28,TREATMENT,2013-08-14T13:24,27
CDISCPILOT01,LB,01-701-1028,108,BILI,Bilirubin,CHEMISTRY,0.7,mg/dL,0.2,1.2,11.97,11.97,umol/L,3,21,NORMAL,,7,WEEK 6,42,TREATMENT,2013-08-29T11:54,42
CDISCPILOT01,LB,01-701-1028,138,BILI,Bilirubin,CHEMISTRY,0.8,mg/dL,0.2,1.2,13.68,13.68,umol/L,3,21,NORMAL,,8,WEEK 8,56,TREATMENT,2013-09-10T09:13,54
CDISCPILOT01,LB,01-701-1028,168,BILI,Bilirubin,CHEMISTRY,0.8,mg/dL,0.2,1.2,13.68,13.68,umol/L,3,21,NORMAL,,9,WEEK 12,84,TREATMENT,2013-10-09T08:42,83
CDISCPILOT01,LB,01-701-1028,204,BILI,Bilirubin,CHEMISTRY,0.7,mg/dL,0.2,1.2,11.97,11.97,umol/L,3,21,NORMAL,,10,WEEK 16,112,TREATMENT,2013-11-06T10:08,111
CDISCPILOT01,LB,01-701-1028,236,BILI,Bilirubin,CHEMISTRY,0.8,mg/dL,0.2,1.2,13.68,13.68,umol/L,3,21,NORMAL,,11,WEEK 20,140,TREATMENT,2013-12-04T15:10,139
CDISCPILOT01,LB,01-701-1028,266,BILI,Bilirubin,CHEMISTRY,0.9,mg/dL,0.2,1.2,15.39,15.39,umol/L,3,21,NORMAL,,12,WEEK 24,168,TREATMENT,2014-01-06T10:00,172
CDISCPILOT01,LB,01-701-1028,303,BILI,Bilirubin,CHEMISTRY,0.8,mg/dL,0.2,1.2,13.68,13.68,umol/L,3,21,NORMAL,,13,WEEK 26,182,TREATMENT,2014-01-14T11:10,180
CDISCPILOT01,LB,01-701-1028,7,UREAN,Urea Nitrogen,CHEMISTRY,12,mg/dL,4,24,4.284,4.284,mmol/L,1.4,8.6,NORMAL,Y,1,SCREENING 1,-7,SCREENING,2013-07-11T12:02,-8
CDISCPILOT01,LB,01-701-1028,44,UREAN,Urea Nitrogen,CHEMISTRY,16,mg/dL,4,24,5.712,5.712,mmol/L,1.4,8.6,NORMAL,,4,WEEK 2,14,TREATMENT,2013-08-01T09:15,14
CDISCPILOT01,LB,01-701-1028,79,UREAN,Urea Nitrogen,CHEMISTRY,18,mg/dL,4,24,6.426,6.426,mmol/L,1.4,8.6,NORMAL,,5,WEEK 4,28,TREATMENT,2013-08-14T13:24,27
CDISCPILOT01,LB,01-701-1028,109,UREAN,Urea Nitrogen,CHEMISTRY,15,mg/dL,4,24,5.355,5.355,mmol/L,1.4,8.6,NORMAL,,7,WEEK 6,42,TREATMENT,2013-08-29T11:54,42
CDISCPILOT01,LB,01-701-1028,139,UREAN,Urea Nitrogen,CHEMISTRY,18,mg/dL,4,24,6.426,6.426,mmol/L,1.4,8.6,NORMAL,,8,WEEK 8,56,TREATMENT,2013-09-10T09:13,54
CDISCPILOT01,LB,01-701-1028,169,UREAN,Urea Nitrogen,CHEMISTRY,17,mg/dL,4,24,6.069,6.069,mmol/L,1.4,8.6,NORMAL,,9,WEEK 12,84,TREATMENT,2013-10-09T08:42,83
CDISCPILOT01,LB,01-701-1028,205,UREAN,Urea Nitrogen,CHEMISTRY,15,mg/dL,4,24,5.355,5.355,mmol/L,1.4,8.6,NORMAL,,10,WEEK 16,112,TREATMENT,2013-11-06T10:08,111
CDISCPILOT01,LB,01-701-1028,237,UREAN,Urea Nitrogen,CHEMISTRY,15,mg/dL,4,24,5.355,5.355,mmol/L,1.4,8.6,NORMAL,,11,WEEK 20,140,TREATMENT,2013-12-04T15:10,139
CDISCPILOT01,LB,01-701-1028,267,UREAN,Urea Nitrogen,CHEMISTRY,13,mg/dL,4,24,4.641,4.641,mmol/L,1.4,8.6,NORMAL,,12,WEEK 24,168,TREATMENT,2014-01-06T10:00,172
CDISCPILOT01,LB,01-701-1028,304,UREAN,Urea Nitrogen,CHEMISTRY,17,mg/dL,4,24,6.069,6.069,mmol/L,1.4,8.6,NORMAL,,13,WEEK 26,182,TREATMENT,2014-01-14T11:10,180
CDISCPILOT01,LB,01-701-1028,8,CA,Calcium,CHEMISTRY,9.2,mg/dL,8.4,10.3,2.2954,2.2954,mmol/L,2.1,2.57,NORMAL,Y,1,SCREENING 1,-7,SCREENING,2013-07-11T12:02,-8
CDISCPILOT01,LB,01-701-1028,45,CA,Calcium,CHEMISTRY,8.9,mg/dL,8.4,10.3,2.22055,2.22055,mmol/L,2.1,2.57,NORMAL,,4,WEEK 2,14,TREATMENT,2013-08-01T09:15,14
CDISCPILOT01,LB,01-701-1028,80,CA,Calcium,CHEMISTRY,8.7,mg/dL,8.4,10.3,2.17065,2.17065,mmol/L,2.1,2.57,NORMAL,,5,WEEK 4,28,TREATMENT,2013-08-14T13:24,27
CDISCPILOT01,LB,01-701-1028,110,CA,Calcium,CHEMISTRY,8.8,mg/dL,8.4,10.3,2.1956,2.1956,mmol/L,2.1,2.57,NORMAL,,7,WEEK 6,42,TREATMENT,2013-08-29T11:54,42
CDISCPILOT01,LB,01-701-1028,140,CA,Calcium,CHEMISTRY,8.6,mg/dL,8.4,10.3,2.1457,2.1457,mmol/L,2.1,2.57,NORMAL,,8,WEEK 8,56,TREATMENT,2013-09-10T09:13,54
CDISCPILOT01,LB,01-701-1028,170,CA,Calcium,CHEMISTRY,8.9,mg/dL,8.4,10.3,2.22055,2.22055,mmol/L,2.1,2.57,NORMAL,,9,WEEK 12,84,TREATMENT,2013-10-09T08:42,83
CDISCPILOT01,LB,01-701-1028,206,CA,Calcium,CHEMISTRY,8.0,mg/dL,8.4,10.3,1.996,1.996,mmol/L,2.1,2.57,LOW,,10,WEEK 16,112,TREATMENT,2013-11-06T10:08,111
CDISCPILOT01,LB,01-701-1028,238,CA,Calcium,CHEMISTRY,8.5,mg/dL,8.4,10.3,2.12075,2.12075,mmol/L,2.1,2.57,NORMAL,,11,WEEK 20,140,TREATMENT,2013-12-04T15:10,139
CDISCPILOT01,LB,01-701-1028,268,CA,Calcium,CHEMISTRY,8.4,mg/dL,8.4,10.3,2.0958,2.0958,mmol/L,2.1,2.57,NORMAL,,12,WEEK 24,168,TREATMENT,2014-01-06T10:00,172
CDISCPILOT01,LB,01-701-1028,305,CA,Calcium,CHEMISTRY,8.9,mg/dL,8.4,10.3,2.22055,2.22055,mmol/L,2.1,2.57,NORMAL,,13,WEEK 26,182,TREATMENT,2014-01-14T11:10,180
CDISCPILOT01,LB,01-701-1028,9,CHOL,Cholesterol,CHEMISTRY,186,mg/dL,149,286,4.80996,4.80996,mmol/L,3.85,7.4,NORMAL,Y,1,SCREENING 1,-7,SCREENING,2013-07-11T12:02,-8
CDISCPILOT01,LB,01-701-1028,46,CHOL,Cholesterol,CHEMISTRY,182,mg/dL,149,286,4.70652,4.70652,mmol/L,3.85,7.4,NORMAL,,4,WEEK 2,14,TREATMENT,2013-08-01T09:15,14
CDISCPILOT01,LB,01-701-1028,81,CHOL,Cholesterol,CHEMISTRY,169,mg/dL,149,286,4.37034,4.37034,mmol/L,3.85,7.4,NORMAL,,5,WEEK 4,28,TREATMENT,2013-08-14T13:24,27
CDISCPILOT01,LB,01-701-1028,111,CHOL,Cholesterol,CHEMISTRY,165,mg/dL,149,286,4.2669,4.2669,mmol/L,3.85,7.4,NORMAL,,7,WEEK 6,42,TREATMENT,2013-08-29T11:54,42
CDISCPILOT01,LB,01-701-1028,141,CHOL,Cholesterol,CHEMISTRY,171,mg/dL,149,286,4.42206,4.42206,mmol/L,3.85,7.4,NORMAL,,8,WEEK 8,56,TREATMENT,2013-09-10T09:13,54
CDISCPILOT01,LB,01-701-1028,171,CHOL,Cholesterol,CHEMISTRY,196,mg/dL,149,286,5.06856,5.06856,mmol/L,3.85,7.4,NORMAL,,9,WEEK 12,84,TREATMENT,2013-10-09T08:42,83
CDISCPILOT01,LB,01-701-1028,207,CHOL,Cholesterol,CHEMISTRY,152,mg/dL,149,286,3.93072,3.93072,mmol/L,3.85,7.4,NORMAL,,10,WEEK 16,112,TREATMENT,2013-11-06T10:08,111
CDISCPILOT01,LB,01-701-1028,239,CHOL,Cholesterol,CHEMISTRY,170,mg/dL,149,286,4.3962,4.3962,mmol/L,3.85,7.4,NORMAL,,11,WEEK 20,140,TREATMENT,2013-12-04T15:10,139
CDISCPILOT01,LB,01-701-1028,269,CHOL,Cholesterol,CHEMISTRY,164,mg/dL,149,286,4.24104,4.24104,mmol/L,3.85,7.4,NORMAL,,12,WEEK 24,168,TREATMENT,2014-01-06T10:00,172
CDISCPILOT01,LB,01-701-1028,306,CHOL,Cholesterol,CHEMISTRY,181,mg/dL,149,286,4.68066,4.68066,mmol/L,3.85,7.4,NORMAL,,13,WEEK 26,182,TREATMENT,2014-01-14T11:10,180
CDISCPILOT01,LB,01-701-1028,10,CK,Creatine Kinase,CHEMISTRY,144,U/L,22,198,144,144,U/L,22,198,NORMAL,Y,1,SCREENING 1,-7,SCREENING,2013-07-11T12:02,-8
CDISCPILOT01,LB,01-701-1028,47,CK,Creatine Kinase,CHEMISTRY,160,U/L,22,198,160,160,U/L,22,198,NORMAL,,4,WEEK 2,14,TREATMENT,2013-08-01T09:15,14
CDISCPILOT01,LB,01-701-1028,82,CK,Creatine Kinase,CHEMISTRY,176,U/L,22,198,176,176,U/L,22,198,NORMAL,,5,WEEK 4,28,TREATMENT,2013-08-14T13:24,27
CDISCPILOT01,LB,01-701-1028,112,CK,Creatine Kinase,CHEMISTRY,186,U/L,22,198,186,186,U/L,22,198,NORMAL,,7,WEEK 6,42,TREATMENT,2013-08-29T11:54,42
CDISCPILOT01,LB,01-701-1028,142,CK,Creatine Kinase,CHEMISTRY,317,U/L,22,198,317,317,U/L,22,198,HIGH,,8,WEEK 8,56,TREATMENT,2013-09-10T09:13,54
CDISCPILOT01,LB,01-701-1028,172,CK,Creatine Kinase,CHEMISTRY,127,U/L,22,198,127,127,U/L,22,198,NORMAL,,9,WEEK 12,84,TREATMENT,2013-10-09T08:42,83
CDISCPILOT01,LB,01-701-1028,208,CK,Creatine Kinase,CHEMISTRY,103,U/L,22,198,103,103,U/L,22,198,NORMAL,,10,WEEK 16,112,TREATMENT,2013-11-06T10:08,111
CDISCPILOT01,LB,01-701-1028,240,CK,Creatine Kinase,CHEMISTRY,161,U/L,22,198,161,161,U/L,22,198,NORMAL,,11,WEEK 20,140,TREATMENT,2013-12-04T15:10,139
CDISCPILOT01,LB,01-701-1028,270,CK,Creatine Kinase,CHEMISTRY,160,U/L,22,198,160,160,U/L,22,198,NORMAL,,12,WEEK 24,168,TREATMENT,2014-01-06T10:00,172
CDISCPILOT01,LB,01-701-1028,307,CK,Creatine Kinase,CHEMISTRY,130,U/L,22,198,130,130,U/L,22,198,NORMAL,,13,WEEK 26,182,TREATMENT,2014-01-14T11:10,180
CDISCPILOT01,LB,01-701-1028,11,CL,Chloride,CHEMISTRY,103,mEq/L,94,112,103,103,mmol/L,94,112,NORMAL,Y,1,SCREENING 1,-7,SCREENING,2013-07-11T12:02,-8
CDISCPILOT01,LB,01-701-1028,48,CL,Chloride,CHEMISTRY,103,mEq/L,94,112,103,103,mmol/L,94,112,NORMAL,,4,WEEK 2,14,TREATMENT,2013-08-01T09:15,14
CDISCPILOT01,LB,01-701-1028,83,CL,Chloride,CHEMISTRY,111,mEq/L,94,112,111,111,mmol/L,94,112,NORMAL,,5,WEEK 4,28,TREATMENT,2013-08-14T13:24,27
CDISCPILOT01,LB,01-701-1028,113,CL,Chloride,CHEMISTRY,107,mEq/L,94,112,107,107,mmol/L,94,112,NORMAL,,7,WEEK 6,42,TREATMENT,2013-08-29T11:54,42
CDISCPILOT01,LB,01-701-1028,143,CL,Chloride,CHEMISTRY,105,mEq/L,94,112,105,105,mmol/L,94,112,NORMAL,,8,WEEK 8,56,TREATMENT,2013-09-10T09:13,54
CDISCPILOT01,LB,01-701-1028,173,CL,Chloride,CHEMISTRY,105,mEq/L,94,112,105,105,mmol/L,94,112,NORMAL,,9,WEEK 12,84,TREATMENT,2013-10-09T08:42,83
CDISCPILOT01,LB,01-701-1028,209,CL,Chloride,CHEMISTRY,108,mEq/L,94,112,108,108,mmol/L,94,112,NORMAL,,10,WEEK 16,112,TREATMENT,2013-11-06T10:08,111
CDISCPILOT01,LB,01-701-1028,241,CL,Chloride,CHEMISTRY,105,mEq/L,94,112,105,105,mmol/L,94,112,NORMAL,,11,WEEK 20,140,TREATMENT,2013-12-04T15:10,139
CDISCPILOT01,LB,01-701-1028,271,CL,Chloride,CHEMISTRY,107,mEq/L,94,112,107,107,mmol/L,94,112,NORMAL,,12,WEEK 24,168,TREATMENT,2014-01-06T10:00,172
CDISCPILOT01,LB,01-701-1028,308,CL,Chloride,CHEMISTRY,103,mEq/L,94,112,103,103,mmol/L,94,112,NORMAL,,13,WEEK 26,182,TREATMENT,2014-01-14T11:10,180
CDISCPILOT01,LB,01-701-1028,13,CREAT,Creatinine,CHEMISTRY,1.4,mg/dL,0.8,1.6,123.76,123.76,umol/L,71,141,NORMAL,Y,1,SCREENING 1,-7,SCREENING,2013-07-11T12:02,-8
CDISCPILOT01,LB,01-701-1028,50,CREAT,Creatinine,CHEMISTRY,1.5,mg/dL,0.8,1.6,132.6,132.6,umol/L,71,141,NORMAL,,4,WEEK 2,14,TREATMENT,2013-08-01T09:15,14
CDISCPILOT01,LB,01-701-1028,84,CREAT,Creatinine,CHEMISTRY,1.6,mg/dL,0.8,1.6,141.44,141.44,umol/L,71,141,NORMAL,,5,WEEK 4,28,TREATMENT,2013-08-14T13:24,27
CDISCPILOT01,LB,01-701-1028,114,CREAT,Creatinine,CHEMISTRY,1.4,mg/dL,0.8,1.6,123.76,123.76,umol/L,71,141,NORMAL,,7,WEEK 6,42,TREATMENT,2013-08-29T11:54,42
CDISCPILOT01,LB,01-701-1028,144,CREAT,Creatinine,CHEMISTRY,1.5,mg/dL,0.8,1.6,132.6,132.6,umol/L,71,141,NORMAL,,8,WEEK 8,56,TREATMENT,2013-09-10T09:13,54
CDISCPILOT01,LB,01-701-1028,175,CREAT,Creatinine,CHEMISTRY,1.5,mg/dL,0.8,1.6,132.6,132.6,umol/L,71,141,NORMAL,,9,WEEK 12,84,TREATMENT,2013-10-09T08:42,83
CDISCPILOT01,LB,01-701-1028,210,CREAT,Creatinine,CHEMISTRY,1.3,mg/dL,0.8,1.6,114.92,114.92,umol/L,71,141,NORMAL,,10,WEEK 16,112,TREATMENT,2013-11-06T10:08,111
CDISCPILOT01,LB,01-701-1028,242,CREAT,Creatinine,CHEMISTRY,1.4,mg/dL,0.8,1.6,123.76,123.76,umol/L,71,141,NORMAL,,11,WEEK 20,140,TREATMENT,2013-12-04T15:10,139
CDISCPILOT01,LB,01-701-1028,273,CREAT,Creatinine,CHEMISTRY,1.5,mg/dL,0.8,1.6,132.6,132.6,umol/L,71,141,NORMAL,,12,WEEK 24,168,TREATMENT,2014-01-06T10:00,172
CDISCPILOT01,LB,01-701-1028,309,CREAT,Creatinine,CHEMISTRY,1.5,mg/dL,0.8,1.6,132.6,132.6,umol/L,71,141,NORMAL,,13,WEEK 26,182,TREATMENT,2014-01-14T11:10,180
CDISCPILOT01,LB,01-701-1028,15,GGT,Gamma Glutamyl Transferase,CHEMISTRY,24,U/L,10,50,24,24,U/L,10,50,NORMAL,Y,1,SCREENING 1,-7,SCREENING,2013-07-11T12:02,-8
CDISCPILOT01,LB,01-701-1028,52,GGT,Gamma Glutamyl Transferase,CHEMISTRY,28,U/L,10,50,28,28,U/L,10,50,NORMAL,,4,WEEK 2,14,TREATMENT,2013-08-01T09:15,14
CDISCPILOT01,LB,01-701-1028,86,GGT,Gamma Glutamyl Transferase,CHEMISTRY,23,U/L,10,50,23,23,U/L,10,50,NORMAL,,5,WEEK 4,28,TREATMENT,2013-08-14T13:24,27
CDISCPILOT01,LB,01-701-1028,116,GGT,Gamma Glutamyl Transferase,CHEMISTRY,24,U/L,10,50,24,24,U/L,10,50,NORMAL,,7,WEEK 6,42,TREATMENT,2013-08-29T11:54,42
CDISCPILOT01,LB,01-701-1028,146,GGT,Gamma Glutamyl Transferase,CHEMISTRY,24,U/L,10,50,24,24,U/L,10,50,NORMAL,,8,WEEK 8,56,TREATMENT,2013-09-10T09:13,54
CDISCPILOT01,LB,01-701-1028,177,GGT,Gamma Glutamyl Transferase,CHEMISTRY,23,U/L,10,50,23,23,U/L,10,50,NORMAL,,9,WEEK 12,84,TREATMENT,2013-10-09T08:42,83
CDISCPILOT01,LB,01-701-1028,212,GGT,Gamma Glutamyl Transferase,CHEMISTRY,19,U/L,10,50,19,19,U/L,10,50,NORMAL,,10,WEEK 16,112,TREATMENT,2013-11-06T10:08,111
CDISCPILOT01,LB,01-701-1028,244,GGT,Gamma Glutamyl Transferase,CHEMISTRY,20,U/L,10,50,20,20,U/L,10,50,NORMAL,,11,WEEK 20,140,TREATMENT,2013-12-04T15:10,139
CDISCPILOT01,LB,01-701-1028,275,GGT,Gamma Glutamyl Transferase,CHEMISTRY,23,U/L,10,50,23,23,U/L,10,50,NORMAL,,12,WEEK 24,168,TREATMENT,2014-01-06T10:00,172
CDISCPILOT01,LB,01-701-1028,311,GGT,Gamma Glutamyl Transferase,CHEMISTRY,23,U/L,10,50,23,23,U/L,10,50,NORMAL,,13,WEEK 26,182,TREATMENT,2014-01-14T11:10,180
CDISCPILOT01,LB,01-701-1028,16,GLUC,Glucose,CHEMISTRY,86,mg/dL,50,250,4.77386,4.77386,mmol/L,2.8,13.9,NORMAL,Y,1,SCREENING 1,-7,SCREENING,2013-07-11T12:02,-8
CDISCPILOT01,LB,01-701-1028,53,GLUC,Glucose,CHEMISTRY,75,mg/dL,50,250,4.16325,4.16325,mmol/L,2.8,13.9,NORMAL,,4,WEEK 2,14,TREATMENT,2013-08-01T09:15,14
CDISCPILOT01,LB,01-701-1028,87,GLUC,Glucose,CHEMISTRY,80,mg/dL,50,250,4.4408,4.4408,mmol/L,2.8,13.9,NORMAL,,5,WEEK 4,28,TREATMENT,2013-08-14T13:24,27
CDISCPILOT01,LB,01-701-1028,117,GLUC,Glucose,CHEMISTRY,76,mg/dL,50,250,4.21876,4.21876,mmol/L,2.8,13.9,NORMAL,,7,WEEK 6,42,TREATMENT,2013-08-29T11:54,42
CDISCPILOT01,LB,01-701-1028,147,GLUC,Glucose,CHEMISTRY,92,mg/dL,50,250,5.10692,5.10692,mmol/L,2.8,13.9,NORMAL,,8,WEEK 8,56,TREATMENT,2013-09-10T09:13,54
CDISCPILOT01,LB,01-701-1028,178,GLUC,Glucose,CHEMISTRY,87,mg/dL,50,250,4.82937,4.82937,mmol/L,2.8,13.9,NORMAL,,9,WEEK 12,84,TREATMENT,2013-10-09T08:42,83
CDISCPILOT01,LB,01-701-1028,213,GLUC,Glucose,CHEMISTRY,87,mg/dL,50,250,4.82937,4.82937,mmol/L,2.8,13.9,NORMAL,,10,WEEK 16,112,TREATMENT,2013-11-06T10:08,111
CDISCPILOT01,LB,01-701-1028,245,GLUC,Glucose,CHEMISTRY,82,mg/dL,50,250,4.55182,4.55182,mmol/L,2.8,13.9,NORMAL,,11,WEEK 20,140,TREATMENT,2013-12-04T15:10,139
CDISCPILOT01,LB,01-701-1028,276,GLUC,Glucose,CHEMISTRY,98,mg/dL,50,250,5.43998,5.43998,mmol/L,2.8,13.9,NORMAL,,12,WEEK 24,168,TREATMENT,2014-01-06T10:00,172
CDISCPILOT01,LB,01-701-1028,312,GLUC,Glucose,CHEMISTRY,88,mg/dL,50,250,4.88488,4.88488,mmol/L,2.8,13.9,NORMAL,,13,WEEK 26,182,TREATMENT,2014-01-14T11:10,180
CDISCPILOT01,LB,01-701-1028,19,K,Potassium,CHEMISTRY,4.4,mEq/L,3.4,5.4,4.4,4.4,mmol/L,3.4,5.4,NORMAL,Y,1,SCREENING 1,-7,SCREENING,2013-07-11T12:02,-8
CDISCPILOT01,LB,01-701-1028,56,K,Potassium,CHEMISTRY,4.6,mEq/L,3.4,5.4,4.6,4.6,mmol/L,3.4,5.4,NORMAL,,4,WEEK 2,14,TREATMENT,2013-08-01T09:15,14
CDISCPILOT01,LB,01-701-1028,90,K,Potassium,CHEMISTRY,4.6,mEq/L,3.4,5.4,4.6,4.6,mmol/L,3.4,5.4,NORMAL,,5,WEEK 4,28,TREATMENT,2013-08-14T13:24,27
CDISCPILOT01,LB,01-701-1028,120,K,Potassium,CHEMISTRY,4.4,mEq/L,3.4,5.4,4.4,4.4,mmol/L,3.4,5.4,NORMAL,,7,WEEK 6,42,TREATMENT,2013-08-29T11:54,42
CDISCPILOT01,LB,01-701-1028,150,K,Potassium,CHEMISTRY,4.0,mEq/L,3.4,5.4,4,4,mmol/L,3.4,5.4,NORMAL,,8,WEEK 8,56,TREATMENT,2013-09-10T09:13,54
CDISCPILOT01,LB,01-701-1028,181,K,Potassium,CHEMISTRY,4.4,mEq/L,3.4,5.4,4.4,4.4,mmol/L,3.4,5.4,NORMAL,,9,WEEK 12,84,TREATMENT,2013-10-09T08:42,83
CDISCPILOT01,LB,01-701-1028,216,K,Potassium,CHEMISTRY,4.2,mEq/L,3.4,5.4,4.2,4.2,mmol/L,3.4,5.4,NORMAL,,10,WEEK 16,112,TREATMENT,2013-11-06T10:08,111
CDISCPILOT01,LB,01-701-1028,248,K,Potassium,CHEMISTRY,4.2,mEq/L,3.4,5.4,4.2,4.2,mmol/L,3.4,5.4,NORMAL,,11,WEEK 20,140,TREATMENT,2013-12-04T15:10,139
CDISCPILOT01,LB,01-701-1028,279,K,Potassium,CHEMISTRY,4.6,mEq/L,3.4,5.4,4.6,4.6,mmol/L,3.4,5.4,NORMAL,,12,WEEK 24,168,TREATMENT,2014-01-06T10:00,172
CDISCPILOT01,LB,01-701-1028,315,K,Potassium,CHEMISTRY,4.4,mEq/L,3.4,5.4,4.4,4.4,mmol/L,3.4,5.4,NORMAL,,13,WEEK 26,182,TREATMENT,2014-01-14T11:10,180
CDISCPILOT01,LB,01-701-1028,26,SODIUM,Sodium,CHEMISTRY,139,mEq/L,135,145,139,139,mmol/L,135,145,NORMAL,Y,1,SCREENING 1,-7,SCREENING,2013-07-11T12:02,-8
CDISCPILOT01,LB,01-701-1028,63,SODIUM,Sodium,CHEMISTRY,137,mEq/L,135,145,137,137,mmol/L,135,145,NORMAL,,4,WEEK 2,14,TREATMENT,2013-08-01T09:15,14
CDISCPILOT01,LB,01-701-1028,96,SODIUM,Sodium,CHEMISTRY,139,mEq/L,135,145,139,139,mmol/L,135,145,NORMAL,,5,WEEK 4,28,TREATMENT,2013-08-14T13:24,27
CDISCPILOT01,LB,01-701-1028,126,SODIUM,Sodium,CHEMISTRY,138,mEq/L,135,145,138,138,mmol/L,135,145,NORMAL,,7,WEEK 6,42,TREATMENT,2013-08-29T11:54,42
CDISCPILOT01,LB,01-701-1028,156,SODIUM,Sodium,CHEMISTRY,136,mEq/L,135,145,136,136,mmol/L,135,145,NORMAL,,8,WEEK 8,56,TREATMENT,2013-09-10T09:13,54
CDISCPILOT01,LB,01-701-1028,188,SODIUM,Sodium,CHEMISTRY,140,mEq/L,135,145,140,140,mmol/L,135,145,NORMAL,,9,WEEK 12,84,TREATMENT,2013-10-09T08:42,83
CDISCPILOT01,LB,01-701-1028,223,SODIUM,Sodium,CHEMISTRY,140,mEq/L,135,145,140,140,mmol/L,135,145,NORMAL,,10,WEEK 16,112,TREATMENT,2013-11-06T10:08,111
CDISCPILOT01,LB,01-701-1028,254,SODIUM,Sodium,CHEMISTRY,137,mEq/L,135,145,137,137,mmol/L,135,145,NORMAL,,11,WEEK 20,140,TREATMENT,2013-12-04T15:10,139
CDISCPILOT01,LB,01-701-1028,287,SODIUM,Sodium,CHEMISTRY,140,mEq/L,135,145,140,140,mmol/L,135,145,NORMAL,,12,WEEK 24,168,TREATMENT,2014-01-06T10:00,172
CDISCPILOT01,LB,01-701-1028,322,SODIUM,Sodium,CHEMISTRY,138,mEq/L,135,145,138,138,mmol/L,135,145,NORMAL,,13,WEEK 26,182,TREATMENT,2014-01-14T11:10,180
CDISCPILOT01,LB,01-701-1028,28,PHOS,Phosphate,CHEMISTRY,3.4,mg/dL,2.2,5.1,1.09786,1.09786,mmol/L,0.71,1.65,NORMAL,Y,1,SCREENING 1,-7,SCREENING,2013-07-11T12:02,-8
CDISCPILOT01,LB,01-701-1028,65,PHOS,Phosphate,CHEMISTRY,2.9,mg/dL,2.2,5.1,0.93641,0.93641,mmol/L,0.71,1.65,NORMAL,,4,WEEK 2,14,TREATMENT,2013-08-01T09:15,14
CDISCPILOT01,LB,01-701-1028,97,PHOS,Phosphate,CHEMISTRY,3.8,mg/dL,2.2,5.1,1.22702,1.22702,mmol/L,0.71,1.65,NORMAL,,5,WEEK 4,28,TREATMENT,2013-08-14T13:24,27
CDISCPILOT01,LB,01-701-1028,127,PHOS,Phosphate,CHEMISTRY,3.4,mg/dL,2.2,5.1,1.09786,1.09786,mmol/L,0.71,1.65,NORMAL,,7,WEEK 6,42,TREATMENT,2013-08-29T11:54,42
CDISCPILOT01,LB,01-701-1028,157,PHOS,Phosphate,CHEMISTRY,2.6,mg/dL,2.2,5.1,0.83954,0.83954,mmol/L,0.71,1.65,NORMAL,,8,WEEK 8,56,TREATMENT,2013-09-10T09:13,54
CDISCPILOT01,LB,01-701-1028,190,PHOS,Phosphate,CHEMISTRY,2.8,mg/dL,2.2,5.1,0.90412,0.90412,mmol/L,0.71,1.65,NORMAL,,9,WEEK 12,84,TREATMENT,2013-10-09T08:42,83
CDISCPILOT01,LB,01-701-1028,224,PHOS,Phosphate,CHEMISTRY,2.4,mg/dL,2.2,5.1,0.77496,0.77496,mmol/L,0.71,1.65,NORMAL,,10,WEEK 16,112,TREATMENT,2013-11-06T10:08,111
CDISCPILOT01,LB,01-701-1028,255,PHOS,Phosphate,CHEMISTRY,3.6,mg/dL,2.2,5.1,1.16244,1.16244,mmol/L,0.71,1.65,NORMAL,,11,WEEK 20,140,TREATMENT,2013-12-04T15:10,139
CDISCPILOT01,LB,01-701-1028,289,PHOS,Phosphate,CHEMISTRY,2.8,mg/dL,2.2,5.1,0.90412,0.90412,mmol/L,0.71,1.65,NORMAL,,12,WEEK 24,168,TREATMENT,2014-01-06T10:00,172
CDISCPILOT01,LB,01-701-1028,323,PHOS,Phosphate,CHEMISTRY,3.5,mg/dL,2.2,5.1,1.13015,1.13015,mmol/L,0.71,1.65,NORMAL,,13,WEEK 26,182,TREATMENT,2014-01-14T11:10,180
CDISCPILOT01,LB,01-701-1028,30,PROT,Protein,CHEMISTRY,7.2,g/dL,6,8,72,72,g/L,60,80,NORMAL,Y,1,SCREENING 1,-7,SCREENING,2013-07-11T12:02,-8
CDISCPILOT01,LB,01-701-1028,67,PROT,Protein,CHEMISTRY,7.2,g/dL,6,8,72,72,g/L,60,80,NORMAL,,4,WEEK 2,14,TREATMENT,2013-08-01T09:15,14
CDISCPILOT01,LB,01-701-1028,99,PROT,Protein,CHEMISTRY,6.9,g/dL,6,8,69,69,g/L,60,80,NORMAL,,5,WEEK 4,28,TREATMENT,2013-08-14T13:24,27
CDISCPILOT01,LB,01-701-1028,129,PROT,Protein,CHEMISTRY,6.9,g/dL,6,8,69,69,g/L,60,80,NORMAL,,7,WEEK 6,42,TREATMENT,2013-08-29T11:54,42
CDISCPILOT01,LB,01-701-1028,159,PROT,Protein,CHEMISTRY,6.7,g/dL,6,8,67,67,g/L,60,80,NORMAL,,8,WEEK 8,56,TREATMENT,2013-09-10T09:13,54
CDISCPILOT01,LB,01-701-1028,192,PROT,Protein,CHEMISTRY,7.8,g/dL,6,8,78,78,g/L,60,80,NORMAL,,9,WEEK 12,84,TREATMENT,2013-10-09T08:42,83
CDISCPILOT01,LB,01-701-1028,226,PROT,Protein,CHEMISTRY,6.2,g/dL,6,8,62,62,g/L,60,80,NORMAL,,10,WEEK 16,112,TREATMENT,2013-11-06T10:08,111
CDISCPILOT01,LB,01-701-1028,257,PROT,Protein,CHEMISTRY,6.6,g/dL,6,8,66,66,g/L,60,80,NORMAL,,11,WEEK 20,140,TREATMENT,2013-12-04T15:10,139
CDISCPILOT01,LB,01-701-1028,292,PROT,Protein,CHEMISTRY,6.7,g/dL,6,8,67,67,g/L,60,80,NORMAL,,12,WEEK 24,168,TREATMENT,2014-01-06T10:00,172
CDISCPILOT01,LB,01-701-1028,325,PROT,Protein,CHEMISTRY,7.0,g/dL,6,8,70,70,g/L,60,80,NORMAL,,13,WEEK 26,182,TREATMENT,2014-01-14T11:10,180
CDISCPILOT01,LB,01-701-1028,34,URATE,Urate,CHEMISTRY,5.0,mg/dL,2.5,7.5,297.4,297.4,umol/L,149,446,NORMAL,Y,1,SCREENING 1,-7,SCREENING,2013-07-11T12:02,-8
CDISCPILOT01,LB,01-701-1028,70,URATE,Urate,CHEMISTRY,5.7,mg/dL,2.5,7.5,339.036,339.036,umol/L,149,446,NORMAL,,4,WEEK 2,14,TREATMENT,2013-08-01T09:15,14
CDISCPILOT01,LB,01-701-1028,101,URATE,Urate,CHEMISTRY,5.8,mg/dL,2.5,7.5,344.984,344.984,umol/L,149,446,NORMAL,,5,WEEK 4,28,TREATMENT,2013-08-14T13:24,27
CDISCPILOT01,LB,01-701-1028,131,URATE,Urate,CHEMISTRY,5.0,mg/dL,2.5,7.5,297.4,297.4,umol/L,149,446,NORMAL,,7,WEEK 6,42,TREATMENT,2013-08-29T11:54,42
CDISCPILOT01,LB,01-701-1028,161,URATE,Urate,CHEMISTRY,5.3,mg/dL,2.5,7.5,315.244,315.244,umol/L,149,446,NORMAL,,8,WEEK 8,56,TREATMENT,2013-09-10T09:13,54
CDISCPILOT01,LB,01-701-1028,195,URATE,Urate,CHEMISTRY,5.3,mg/dL,2.5,7.5,315.244,315.244,umol/L,149,446,NORMAL,,9,WEEK 12,84,TREATMENT,2013-10-09T08:42,83
CDISCPILOT01,LB,01-701-1028,228,URATE,Urate,CHEMISTRY,4.8,mg/dL,2.5,7.5,285.504,285.504,umol/L,149,446,NORMAL,,10,WEEK 16,112,TREATMENT,2013-11-06T10:08,111
CDISCPILOT01,LB,01-701-1028,259,URATE,Urate,CHEMISTRY,5.1,mg/dL,2.5,7.5,303.348,303.348,umol/L,149,446,NORMAL,,11,WEEK 20,140,TREATMENT,2013-12-04T15:10,139
CDISCPILOT01,LB,01-701-1028,295,URATE,Urate,CHEMISTRY,5.4,mg/dL,2.5,7.5,321.192,321.192,umol/L,149,446,NORMAL,,12,WEEK 24,168,TREATMENT,2014-01-06T10:00,172
CDISCPILOT01,LB,01-701-1028,327,URATE,Urate,CHEMISTRY,5.7,mg/dL,2.5,7.5,339.036,339.036,umol/L,149,446,NORMAL,,13,WEEK 26,182,TREATMENT,2014-01-14T11:10,180
CDISCPILOT01,LB,01-701-1033,1,ALB,Albumin,CHEMISTRY,3.8,g/dL,3.5,4.6,38,38,g/L,35,46,NORMAL,Y,1,SCREENING 1,-7,SCREENING,2014-03-10T12:31,-8
CDISCPILOT01,LB,01-701-1033,38,ALB,Albumin,CHEMISTRY,4.1,g/dL,3.5,4.6,41,41,g/L,35,46,NORMAL,,4,WEEK 2,14,TREATMENT,2014-04-01T08:55,15
CDISCPILOT01,LB,01-701-1033,73,ALB,Albumin,CHEMISTRY,4.0,g/dL,3.5,4.6,40,40,g/L,35,46,NORMAL,,5,WEEK 4,28,TREATMENT,2014-04-14T10:38,28
CDISCPILOT01,LB,01-701-1033,2,ALP,Alkaline Phosphatase,CHEMISTRY,67,U/L,35,115,67,67,U/L,35,115,NORMAL,Y,1,SCREENING 1,-7,SCREENING,2014-03-10T12:31,-8
CDISCPILOT01,LB,01-701-1033,39,ALP,Alkaline Phosphatase,CHEMISTRY,89,U/L,35,115,89,89,U/L,35,115,NORMAL,,4,WEEK 2,14,TREATMENT,2014-04-01T08:55,15
CDISCPILOT01,LB,01-701-1033,74,ALP,Alkaline Phosphatase,CHEMISTRY,76,U/L,35,115,76,76,U/L,35,115,NORMAL,,5,WEEK 4,28,TREATMENT,2014-04-14T10:38,28
CDISCPILOT01,LB,01-701-1033,3,ALT,Alanine Aminotransferase,CHEMISTRY,16,U/L,6,35,16,16,U/L,6,35,NORMAL,Y,1,SCREENING 1,-7,SCREENING,2014-03-10T12:31,-8
CDISCPILOT01,LB,01-701-1033,40,ALT,Alanine Aminotransferase,CHEMISTRY,35,U/L,6,35,35,35,U/L,6,35,NORMAL,,4,WEEK 2,14,TREATMENT,2014-04-01T08:55,15
CDISCPILOT01,LB,01-701-1033,75,ALT,Alanine Aminotransferase,CHEMISTRY,14,U/L,6,35,14,14,U/L,6,35,NORMAL,,5,WEEK 4,28,TREATMENT,2014-04-14T10:38,28
CDISCPILOT01,LB,01-701-1033,4,AST,Aspartate Aminotransferase,CHEMISTRY,20,U/L,11,36,20,20,U/L,11,36,NORMAL,Y,1,SCREENING 1,-7,SCREENING,2014-03-10T12:31,-8
CDISCPILOT01,LB,01-701-1033,41,AST,Aspartate Aminotransferase,CHEMISTRY,26,U/L,11,36,26,26,U/L,11,36,NORMAL,,4,WEEK 2,14,TREATMENT,2014-04-01T08:55,15
CDISCPILOT01,LB,01-701-1033,76,AST,Aspartate Aminotransferase,CHEMISTRY,20,U/L,11,36,20,20,U/L,11,36,NORMAL,,5,WEEK 4,28,TREATMENT,2014-04-14T10:38,28
CDISCPILOT01,LB,01-701-1033,6,BILI,Bilirubin,CHEMISTRY,0.8,mg/dL,0.2,1.2,13.68,13.68,umol/L,3,21,NORMAL,Y,1,SCREENING 1,-7,SCREENING,2014-03-10T12:31,-8
CDISCPILOT01,LB,01-701-1033,43,BILI,Bilirubin,CHEMISTRY,0.4,mg/dL,0.2,1.2,6.84,6.84,umol/L,3,21,NORMAL,,4,WEEK 2,14,TREATMENT,2014-04-01T08:55,15
CDISCPILOT01,LB,01-701-1033,78,BILI,Bilirubin,CHEMISTRY,0.9,mg/dL,0.2,1.2,15.39,15.39,umol/L,3,21,NORMAL,,5,WEEK 4,28,TREATMENT,2014-04-14T10:38,28
CDISCPILOT01,LB,01-701-1033,7,UREAN,Urea Nitrogen,CHEMISTRY,16,mg/dL,4,24,5.712,5.712,mmol/L,1.4,8.6,NORMAL,Y,1,SCREENING 1,-7,SCREENING,2014-03-10T12:31,-8
CDISCPILOT01,LB,01-701-1033,44,UREAN,Urea Nitrogen,CHEMISTRY,13,mg/dL,4,24,4.641,4.641,mmol/L,1.4,8.6,NORMAL,,4,WEEK 2,14,TREATMENT,2014-04-01T08:55,15
CDISCPILOT01,LB,01-701-1033,79,UREAN,Urea Nitrogen,CHEMISTRY,16,mg/dL,4,24,5.712,5.712,mmol/L,1.4,8.6,NORMAL,,5,WEEK 4,28,TREATMENT,2014-04-14T10:38,28
CDISCPILOT01,LB,01-701-1033,8,CA,Calcium,CHEMISTRY,8.3,mg/dL,8.4,10.3,2.07085,2.07085,mmol/L,2.1,2.57,LOW,Y,1,SCREENING 1,-7,SCREENING,2014-03-10T12:31,-8
CDISCPILOT01,LB,01-701-1033,45,CA,Calcium,CHEMISTRY,8.7,mg/dL,8.4,10.3,2.17065,2.17065,mmol/L,2.1,2.57,NORMAL,,4,WEEK 2,14,TREATMENT,2014-04-01T08:55,15
CDISCPILOT01,LB,01-701-1033,80,CA,Calcium,CHEMISTRY,8.6,mg/dL,8.4,10.3,2.1457,2.1457,mmol/L,2.1,2.57,NORMAL,,5,WEEK 4,28,TREATMENT,2014-04-14T10:38,28
CDISCPILOT01,LB,01-701-1033,9,CHOL,Cholesterol,CHEMISTRY,191,mg/dL,149,286,4.93926,4.93926,mmol/L,3.85,7.4,NORMAL,Y,1,SCREENING 1,-7,SCREENING,2014-03-10T12:31,-8
CDISCPILOT01,LB,01-701-1033,46,CHOL,Cholesterol,CHEMISTRY,197,mg/dL,149,286,5.09442,5.09442,mmol/L,3.85,7.4,NORMAL,,4,WEEK 2,14,TREATMENT,2014-04-01T08:55,15
CDISCPILOT01,LB,01-701-1033,81,CHOL,Cholesterol,CHEMISTRY,197,mg/dL,149,286,5.09442,5.09442,mmol/L,3.85,7.4,NORMAL,,5,WEEK 4,28,TREATMENT,2014-04-14T10:38,28
CDISCPILOT01,LB,01-701-1033,10,CK,Creatine Kinase,CHEMISTRY,114,U/L,22,198,114,114,U/L,22,198,NORMAL,Y,1,SCREENING 1,-7,SCREENING,2014-03-10T12:31,-8
CDISCPILOT01,LB,01-701-1033,47,CK,Creatine Kinase,CHEMISTRY,93,U/L,22,198,93,93,U/L,22,198,NORMAL,,4,WEEK 2,14,TREATMENT,2014-04-01T08:55,15
CDISCPILOT01,LB,01-701-1033,82,CK,Creatine Kinase,CHEMISTRY,116,U/L,22,198,116,116,U/L,22,198,NORMAL,,5,WEEK 4,28,TREATMENT,2014-04-14T10:38,28
CDISCPILOT01,LB,01-701-1033,11,CL,Chloride,CHEMISTRY,107,mEq/L,94,112,107,107,mmol/L,94,112,NORMAL,Y,1,SCREENING 1,-7,SCREENING,2014-03-10T12:31,-8
CDISCPILOT01,LB,01-701-1033,48,CL,Chloride,CHEMISTRY,107,mEq/L,94,112,107,107,mmol/L,94,112,NORMAL,,4,WEEK 2,14,TREATMENT,2014-04-01T08:55,15
CDISCPILOT01,LB,01-701-1033,83,CL,Chloride,CHEMISTRY,105,mEq/L,94,112,105,105,mmol/L,94,112,NORMAL,,5,WEEK 4,28,TREATMENT,2014-04-14T10:38,28
CDISCPILOT01,LB,01-701-1033,13,CREAT,Creatinine,CHEMISTRY,1.5,mg/dL,0.8,1.6,132.6,132.6,umol/L,71,141,NORMAL,Y,1,SCREENING 1,-7,SCREENING,2014-03-10T12:31,-8
CDISCPILOT01,LB,01-701-1033,50,CREAT,Creatinine,CHEMISTRY,1.5,mg/dL,0.8,1.6,132.6,132.6,umol/L,71,141,NORMAL,,4,WEEK 2,14,TREATMENT,2014-04-01T08:55,15
CDISCPILOT01,LB,01-701-1033,85,CREAT,Creatinine,CHEMISTRY,1.5,mg/dL,0.8,1.6,132.6,132.6,umol/L,71,141,NORMAL,,5,WEEK 4,28,TREATMENT,2014-04-14T10:38,28
CDISCPILOT01,LB,01-701-1033,15,GGT,Gamma Glutamyl Transferase,CHEMISTRY,21,U/L,10,50,21,21,U/L,10,50,NORMAL,Y,1,SCREENING 1,-7,SCREENING,2014-03-10T12:31,-8
CDISCPILOT01,LB,01-701-1033,52,GGT,Gamma Glutamyl Transferase,CHEMISTRY,26,U/L,10,50,26,26,U/L,10,50,NORMAL,,4,WEEK 2,14,TREATMENT,2014-04-01T08:55,15
CDISCPILOT01,LB,01-701-1033,87,GGT,Gamma Glutamyl Transferase,CHEMISTRY,21,U/L,10,50,21,21,U/L,10,50,NORMAL,,5,WEEK 4,28,TREATMENT,2014-04-14T10:38,28
CDISCPILOT01,LB,01-701-1033,16,GLUC,Glucose,CHEMISTRY,90,mg/dL,50,250,4.9959,4.9959,mmol/L,2.8,13.9,NORMAL,Y,1,SCREENING 1,-7,SCREENING,2014-03-10T12:31,-8
CDISCPILOT01,LB,01-701-1033,53,GLUC,Glucose,CHEMISTRY,103,mg/dL,50,250,5.71753,5.71753,mmol/L,2.8,13.9,NORMAL,,4,WEEK 2,14,TREATMENT,2014-04-01T08:55,15
CDISCPILOT01,LB,01-701-1033,88,GLUC,Glucose,CHEMISTRY,98,mg/dL,50,250,5.43998,5.43998,mmol/L,2.8,13.9,NORMAL,,5,WEEK 4,28,TREATMENT,2014-04-14T10:38,28
CDISCPILOT01,LB,01-701-1033,19,K,Potassium,CHEMISTRY,4.1,mEq/L,3.4,5.4,4.1,4.1,mmol/L,3.4,5.4,NORMAL,Y,1,SCREENING 1,-7,SCREENING,2014-03-10T12:31,-8
CDISCPILOT01,LB,01-701-1033,56,K,Potassium,CHEMISTRY,4.2,mEq/L,3.4,5.4,4.2,4.2,mmol/L,3.4,5.4,NORMAL,,4,WEEK 2,14,TREATMENT,2014-04-01T08:55,15
CDISCPILOT01,LB,01-701-1033,91,K,Potassium,CHEMISTRY,3.9,mEq/L,3.4,5.4,3.9,3.9,mmol/L,3.4,5.4,NORMAL,,5,WEEK 4,28,TREATMENT,2014-04-14T10:38,28
CDISCPILOT01,LB,01-701-1033,26,SODIUM,Sodium,CHEMISTRY,145,mEq/L,135,145,145,145,mmol/L,135,145,NORMAL,Y,1,SCREENING 1,-7,SCREENING,2014-03-10T12:31,-8
CDISCPILOT01,LB,01-701-1033,63,SODIUM,Sodium,CHEMISTRY,140,mEq/L,135,145,140,140,mmol/L,135,145,NORMAL,,4,WEEK 2,14,TREATMENT,2014-04-01T08:55,15
CDISCPILOT01,LB,01-701-1033,98,SODIUM,Sodium,CHEMISTRY,140,mEq/L,135,145,140,140,mmol/L,135,145,NORMAL,,5,WEEK 4,28,TREATMENT,2014-04-14T10:38,28
CDISCPILOT01,LB,01-701-1033,28,PHOS,Phosphate,CHEMISTRY,3.8,mg/dL,2.2,5.1,1.22702,1.22702,mmol/L,0.71,1.65,NORMAL,Y,1,SCREENING 1,-7,SCREENING,2014-03-10T12:31,-8
CDISCPILOT01,LB,01-701-1033,65,PHOS,Phosphate,CHEMISTRY,3.3,mg/dL,2.2,5.1,1.06557,1.06557,mmol/L,0.71,1.65,NORMAL,,4,WEEK 2,14,TREATMENT,2014-04-01T08:55,15
CDISCPILOT01,LB,01-701-1033,100,PHOS,Phosphate,CHEMISTRY,3.5,mg/dL,2.2,5.1,1.13015,1.13015,mmol/L,0.71,1.65,NORMAL,,5,WEEK 4,28,TREATMENT,2014-04-14T10:38,28
CDISCPILOT01,LB,01-701-1033,30,PROT,Protein,CHEMISTRY,7.3,g/dL,6,8,73,73,g/L,60,80,NORMAL,Y,1,SCREENING 1,-7,SCREENING,2014-03-10T12:31,-8
CDISCPILOT01,LB,01-701-1033,67,PROT,Protein,CHEMISTRY,7.4,g/dL,6,8,74,74,g/L,60,80,NORMAL,,4,WEEK 2,14,TREATMENT,2014-04-01T08:55,15
CDISCPILOT01,LB,01-701-1033,102,PROT,Protein,CHEMISTRY,7.2,g/dL,6,8,72,72,g/L,60,80,NORMAL,,5,WEEK 4,28,TREATMENT,2014-04-14T10:38,28
CDISCPILOT01,LB,01-701-1033,34,URATE,Urate,CHEMISTRY,7.2,mg/dL,2.5,7.5,428.256,428.256,umol/L,149,446,NORMAL,Y,1,SCREENING 1,-7,SCREENING,2014-03-10T12:31,-8
CDISCPILOT01,LB,01-701-1033,70,URATE,Urate,CHEMISTRY,6.9,mg/dL,2.5,7.5,410.412,410.412,umol/L,149,446,NORMAL,,4,WEEK 2,14,TREATMENT,2014-04-01T08:55,15
CDISCPILOT01,LB,01-701-1033,105,URATE,Urate,CHEMISTRY,7.8,mg/dL,2.5,7.5,463.944,463.944,umol/L,149,446,HIGH,,5,WEEK 4,28,TREATMENT,2014-04-14T10:38,28
CDISCPILOT01,LB,01-701-1034,1,ALB,Albumin,CHEMISTRY,4.3,g/dL,3.5,4.6,43,43,g/L,35,46,NORMAL,Y,1,SCREENING 1,-7,SCREENING,2014-06-24T15:30,-7
CDISCPILOT01,LB,01-701-1034,39,ALB,Albumin,CHEMISTRY,4.2,g/dL,3.5,4.6,42,42,g/L,35,46,NORMAL,,4,WEEK 2,14,TREATMENT,2014-07-15T09:25,15
CDISCPILOT01,LB,01-701-1034,75,ALB,Albumin,CHEMISTRY,4.1,g/dL,3.5,4.6,41,41,g/L,35,46,NORMAL,,5,WEEK 4,28,TREATMENT,2014-07-29T08:40,29
CDISCPILOT01,LB,01-701-1034,106,ALB,Albumin,CHEMISTRY,3.8,g/dL,3.5,4.6,38,38,g/L,35,46,NORMAL,,7,WEEK 6,42,TREATMENT,2014-08-11T13:15,42
CDISCPILOT01,LB,01-701-1034,137,ALB,Albumin,CHEMISTRY,4.1,g/dL,3.5,4.6,41,41,g/L,35,46,NORMAL,,8,WEEK 8,56,TREATMENT,2014-08-26T09:57,57
CDISCPILOT01,LB,01-701-1034,167,ALB,Albumin,CHEMISTRY,3.9,g/dL,3.5,4.6,39,39,g/L,35,46,NORMAL,,9,WEEK 12,84,TREATMENT,2014-09-25T15:40,87
CDISCPILOT01,LB,01-701-1034,202,ALB,Albumin,CHEMISTRY,3.9,g/dL,3.5,4.6,39,39,g/L,35,46,NORMAL,,10,WEEK 16,112,TREATMENT,2014-10-21T09:52,113
CDISCPILOT01,LB,01-701-1034,233,ALB,Albumin,CHEMISTRY,3.9,g/dL,3.5,4.6,39,39,g/L,35,46,NORMAL,,11,WEEK 20,140,TREATMENT,2014-11-18T12:23,141
CDISCPILOT01,LB,01-701-1034,264,ALB,Albumin,CHEMISTRY,4.0,g/dL,3.5,4.6,40,40,g/L,35,46,NORMAL,,12,WEEK 24,168,TREATMENT,2014-12-17T14:27,170
CDISCPILOT01,LB,01-701-1034,300,ALB,Albumin,CHEMISTRY,4.1,g/dL,3.5,4.6,41,41,g/L,35,46,NORMAL,,13,WEEK 26,182,TREATMENT,2014-12-30T09:50,183
CDISCPILOT01,LB,01-701-1034,2,ALP,Alkaline Phosphatase,CHEMISTRY,41,U/L,35,115,41,41,U/L,35,115,NORMAL,Y,1,SCREENING 1,-7,SCREENING,2014-06-24T15:30,-7
CDISCPILOT01,LB,01-701-1034,40,ALP,Alkaline Phosphatase,CHEMISTRY,34,U/L,35,115,34,34,U/L,35,115,LOW,,4,WEEK 2,14,TREATMENT,2014-07-15T09:25,15
CDISCPILOT01,LB,01-701-1034,76,ALP,Alkaline Phosphatase,CHEMISTRY,36,U/L,35,115,36,36,U/L,35,115,NORMAL,,5,WEEK 4,28,TREATMENT,2014-07-29T08:40,29
CDISCPILOT01,LB,01-701-1034,107,ALP,Alkaline Phosphatase,CHEMISTRY,33,U/L,35,115,33,33,U/L,35,115,LOW,,7,WEEK 6,42,TREATMENT,2014-08-11T13:15,42
CDISCPILOT01,LB,01-701-1034,138,ALP,Alkaline Phosphatase,CHEMISTRY,29,U/L,35,115,29,29,U/L,35,115,LOW,,8,WEEK 8,56,TREATMENT,2014-08-26T09:57,57
CDISCPILOT01,LB,01-701-1034,168,ALP,Alkaline Phosphatase,CHEMISTRY,34,U/L,35,115,34,34,U/L,35,115,LOW,,9,WEEK 12,84,TREATMENT,2014-09-25T15:40,87
CDISCPILOT01,LB,01-701-1034,203,ALP,Alkaline Phosphatase,CHEMISTRY,34,U/L,35,115,34,34,U/L,35,115,LOW,,10,WEEK 16,112,TREATMENT,2014-10-21T09:52,113
CDISCPILOT01,LB,01-701-1034,234,ALP,Alkaline Phosphatase,CHEMISTRY,31,U/L,35,115,31,31,U/L,35,115,LOW,,11,WEEK 20,140,TREATMENT,2014-11-18T12:23,141
CDISCPILOT01,LB,01-701-1034,265,ALP,Alkaline Phosphatase,CHEMISTRY,40,U/L,35,115,40,40,U/L,35,115,NORMAL,,12,WEEK 24,168,TREATMENT,2014-12-17T14:27,170
CDISCPILOT01,LB,01-701-1034,301,ALP,Alkaline Phosphatase,CHEMISTRY,27,U/L,35,115,27,27,U/L,35,115,LOW,,13,WEEK 26,182,TREATMENT,2014-12-30T09:50,183
CDISCPILOT01,LB,01-701-1034,3,ALT,Alanine Aminotransferase,CHEMISTRY,15,U/L,6,32,15,15,U/L,6,32,NORMAL,Y,1,SCREENING 1,-7,SCREENING,2014-06-24T15:30,-7
CDISCPILOT01,LB,01-701-1034,41,ALT,Alanine Aminotransferase,CHEMISTRY,19,U/L,6,32,19,19,U/L,6,32,NORMAL,,4,WEEK 2,14,TREATMENT,2014-07-15T09:25,15
CDISCPILOT01,LB,01-701-1034,77,ALT,Alanine Aminotransferase,CHEMISTRY,21,U/L,6,32,21,21,U/L,6,32,NORMAL,,5,WEEK 4,28,TREATMENT,2014-07-29T08:40,29
CDISCPILOT01,LB,01-701-1034,108,ALT,Alanine Aminotransferase,CHEMISTRY,15,U/L,6,32,15,15,U/L,6,32,NORMAL,,7,WEEK 6,42,TREATMENT,2014-08-11T13:15,42
CDISCPILOT01,LB,01-701-1034,139,ALT,Alanine Aminotransferase,CHEMISTRY,24,U/L,6,32,24,24,U/L,6,32,NORMAL,,8,WEEK 8,56,TREATMENT,2014-08-26T09:57,57
CDISCPILOT01,LB,01-701-1034,169,ALT,Alanine Aminotransferase,CHEMISTRY,20,U/L,6,32,20,20,U/L,6,32,NORMAL,,9,WEEK 12,84,TREATMENT,2014-09-25T15:40,87
CDISCPILOT01,LB,01-701-1034,204,ALT,Alanine Aminotransferase,CHEMISTRY,21,U/L,6,32,21,21,U/L,6,32,NORMAL,,10,WEEK 16,112,TREATMENT,2014-10-21T09:52,113
CDISCPILOT01,LB,01-701-1034,235,ALT,Alanine Aminotransferase,CHEMISTRY,23,U/L,6,32,23,23,U/L,6,32,NORMAL,,11,WEEK 20,140,TREATMENT,2014-11-18T12:23,141
CDISCPILOT01,LB,01-701-1034,266,ALT,Alanine Aminotransferase,CHEMISTRY,15,U/L,6,32,15,15,U/L,6,32,NORMAL,,12,WEEK 24,168,TREATMENT,2014-12-17T14:27,170
CDISCPILOT01,LB,01-701-1034,302,ALT,Alanine Aminotransferase,CHEMISTRY,18,U/L,6,32,18,18,U/L,6,32,NORMAL,,13,WEEK 26,182,TREATMENT,2014-12-30T09:50,183
CDISCPILOT01,LB,01-701-1034,5,AST,Aspartate Aminotransferase,CHEMISTRY,23,U/L,9,34,23,23,U/L,9,34,NORMAL,Y,1,SCREENING 1,-7,SCREENING,2014-06-24T15:30,-7
CDISCPILOT01,LB,01-701-1034,42,AST,Aspartate Aminotransferase,CHEMISTRY,23,U/L,9,34,23,23,U/L,9,34,NORMAL,,4,WEEK 2,14,TREATMENT,2014-07-15T09:25,15
CDISCPILOT01,LB,01-701-1034,79,AST,Aspartate Aminotransferase,CHEMISTRY,25,U/L,9,34,25,25,U/L,9,34,NORMAL,,5,WEEK 4,28,TREATMENT,2014-07-29T08:40,29
CDISCPILOT01,LB,01-701-1034,110,AST,Aspartate Aminotransferase,CHEMISTRY,19,U/L,9,34,19,19,U/L,9,34,NORMAL,,7,WEEK 6,42,TREATMENT,2014-08-11T13:15,42
CDISCPILOT01,LB,01-701-1034,140,AST,Aspartate Aminotransferase,CHEMISTRY,26,U/L,9,34,26,26,U/L,9,34,NORMAL,,8,WEEK 8,56,TREATMENT,2014-08-26T09:57,57
CDISCPILOT01,LB,01-701-1034,170,AST,Aspartate Aminotransferase,CHEMISTRY,23,U/L,9,34,23,23,U/L,9,34,NORMAL,,9,WEEK 12,84,TREATMENT,2014-09-25T15:40,87
CDISCPILOT01,LB,01-701-1034,205,AST,Aspartate Aminotransferase,CHEMISTRY,21,U/L,9,34,21,21,U/L,9,34,NORMAL,,10,WEEK 16,112,TREATMENT,2014-10-21T09:52,113
CDISCPILOT01,LB,01-701-1034,236,AST,Aspartate Aminotransferase,CHEMISTRY,22,U/L,9,34,22,22,U/L,9,34,NORMAL,,11,WEEK 20,140,TREATMENT,2014-11-18T12:23,141
CDISCPILOT01,LB,01-701-1034,267,AST,Aspartate Aminotransferase,CHEMISTRY,17,U/L,9,34,17,17,U/L,9,34,NORMAL,,12,WEEK 24,168,TREATMENT,2014-12-17T14:27,170
CDISCPILOT01,LB,01-701-1034,304,AST,Aspartate Aminotransferase,CHEMISTRY,21,U/L,9,34,21,21,U/L,9,34,NORMAL,,13,WEEK 26,182,TREATMENT,2014-12-30T09:50,183
CDISCPILOT01,LB,01-701-1034,7,BILI,Bilirubin,CHEMISTRY,0.6,mg/dL,0.2,1.2,10.26,10.26,umol/L,3,21,NORMAL,Y,1,SCREENING 1,-7,SCREENING,2014-06-24T15:30,-7
CDISCPILOT01,LB,01-701-1034,44,BILI,Bilirubin,CHEMISTRY,0.4,mg/dL,0.2,1.2,6.84,6.84,umol/L,3,21,NORMAL,,4,WEEK 2,14,TREATMENT,2014-07-15T09:25,15
CDISCPILOT01,LB,01-701-1034,81,BILI,Bilirubin,CHEMISTRY,0.4,mg/dL,0.2,1.2,6.84,6.84,umol/L,3,21,NORMAL,,5,WEEK 4,28,TREATMENT,2014-07-29T08:40,29
CDISCPILOT01,LB,01-701-1034,112,BILI,Bilirubin,CHEMISTRY,0.4,mg/dL,0.2,1.2,6.84,6.84,umol/L,3,21,NORMAL,,7,WEEK 6,42,TREATMENT,2014-08-11T13:15,42
CDISCPILOT01,LB,01-701-1034,142,BILI,Bilirubin,CHEMISTRY,0.5,mg/dL,0.2,1.2,8.55,8.55,umol/L,3,21,NORMAL,,8,WEEK 8,56,TREATMENT,2014-08-26T09:57,57
CDISCPILOT01,LB,01-701-1034,172,BILI,Bilirubin,CHEMISTRY,0.5,mg/dL,0.2,1.2,8.55,8.55,umol/L,3,21,NORMAL,,9,WEEK 12,84,TREATMENT,2014-09-25T15:40,87
CDISCPILOT01,LB,01-701-1034,207,BILI,Bilirubin,CHEMISTRY,0.4,mg/dL,0.2,1.2,6.84,6.84,umol/L,3,21,NORMAL,,10,WEEK 16,112,TREATMENT,2014-10-21T09:52,113
CDISCPILOT01,LB,01-701-1034,238,BILI,Bilirubin,CHEMISTRY,0.3,mg/dL,0.2,1.2,5.13,5.13,umol/L,3,21,NORMAL,,11,WEEK 20,140,TREATMENT,2014-11-18T12:23,141
CDISCPILOT01,LB,01-701-1034,269,BILI,Bilirubin,CHEMISTRY,0.4,mg/dL,0.2,1.2,6.84,6.84,umol/L,3,21,NORMAL,,12,WEEK 24,168,TREATMENT,2014-12-17T14:27,170
CDISCPILOT01,LB,01-701-1034,306,BILI,Bilirubin,CHEMISTRY,0.4,mg/dL,0.2,1.2,6.84,6.84,umol/L,3,21,NORMAL,,13,WEEK 26,182,TREATMENT,2014-12-30T09:50,183
CDISCPILOT01,LB,01-701-1034,8,UREAN,Urea Nitrogen,CHEMISTRY,12,mg/dL,4,24,4.284,4.284,mmol/L,1.4,8.6,NORMAL,Y,1,SCREENING 1,-7,SCREENING,2014-06-24T15:30,-7
CDISCPILOT01,LB,01-701-1034,45,UREAN,Urea Nitrogen,CHEMISTRY,12,mg/dL,4,24,4.284,4.284,mmol/L,1.4,8.6,NORMAL,,4,WEEK 2,14,TREATMENT,2014-07-15T09:25,15
CDISCPILOT01,LB,01-701-1034,82,UREAN,Urea Nitrogen,CHEMISTRY,12,mg/dL,4,24,4.284,4.284,mmol/L,1.4,8.6,NORMAL,,5,WEEK 4,28,TREATMENT,2014-07-29T08:40,29
CDISCPILOT01,LB,01-701-1034,113,UREAN,Urea Nitrogen,CHEMISTRY,14,mg/dL,4,24,4.998,4.998,mmol/L,1.4,8.6,NORMAL,,7,WEEK 6,42,TREATMENT,2014-08-11T13:15,42
CDISCPILOT01,LB,01-701-1034,143,UREAN,Urea Nitrogen,CHEMISTRY,12,mg/dL,4,24,4.284,4.284,mmol/L,1.4,8.6,NORMAL,,8,WEEK 8,56,TREATMENT,2014-08-26T09:57,57
CDISCPILOT01,LB,01-701-1034,173,UREAN,Urea Nitrogen,CHEMISTRY,19,mg/dL,4,24,6.783,6.783,mmol/L,1.4,8.6,NORMAL,,9,WEEK 12,84,TREATMENT,2014-09-25T15:40,87
CDISCPILOT01,LB,01-701-1034,208,UREAN,Urea Nitrogen,CHEMISTRY,14,mg/dL,4,24,4.998,4.998,mmol/L,1.4,8.6,NORMAL,,10,WEEK 16,112,TREATMENT,2014-10-21T09:52,113
CDISCPILOT01,LB,01-701-1034,239,UREAN,Urea Nitrogen,CHEMISTRY,16,mg/dL,4,24,5.712,5.712,mmol/L,1.4,8.6,NORMAL,,11,WEEK 20,140,TREATMENT,2014-11-18T12:23,141
CDISCPILOT01,LB,01-701-1034,270,UREAN,Urea Nitrogen,CHEMISTRY,13,mg/dL,4,24,4.641,4.641,mmol/L,1.4,8.6,NORMAL,,12,WEEK 24,168,TREATMENT,2014-12-17T14:27,170
CDISCPILOT01,LB,01-701-1034,307,UREAN,Urea Nitrogen,CHEMISTRY,11,mg/dL,4,24,3.927,3.927,mmol/L,1.4,8.6,NORMAL,,13,WEEK 26,182,TREATMENT,2014-12-30T09:50,183
CDISCPILOT01,LB,01-701-1034,9,CA,Calcium,CHEMISTRY,10.2,mg/dL,8.4,10.3,2.5449,2.5449,mmol/L,2.1,2.57,NORMAL,Y,1,SCREENING 1,-7,SCREENING,2014-06-24T15:30,-7
CDISCPILOT01,LB,01-701-1034,46,CA,Calcium,CHEMISTRY,10.3,mg/dL,8.4,10.3,2.56985,2.56985,mmol/L,2.1,2.57,NORMAL,,4,WEEK 2,14,TREATMENT,2014-07-15T09:25,15
CDISCPILOT01,LB,01-701-1034,83,CA,Calcium,CHEMISTRY,9.8,mg/dL,8.4,10.3,2.4451,2.4451,mmol/L,2.1,2.57,NORMAL,,5,WEEK 4,28,TREATMENT,2014-07-29T08:40,29
CDISCPILOT01,LB,01-701-1034,114,CA,Calcium,CHEMISTRY,9.4,mg/dL,8.4,10.3,2.3453,2.3453,mmol/L,2.1,2.57,NORMAL,,7,WEEK 6,42,TREATMENT,2014-08-11T13:15,42
CDISCPILOT01,LB,01-701-1034,144,CA,Calcium,CHEMISTRY,10.0,mg/dL,8.4,10.3,2.495,2.495,mmol/L,2.1,2.57,NORMAL,,8,WEEK 8,56,TREATMENT,2014-08-26T09:57,57
CDISCPILOT01,LB,01-701-1034,174,CA,Calcium,CHEMISTRY,9.7,mg/dL,8.4,10.3,2.42015,2.42015,mmol/L,2.1,2.57,NORMAL,,9,WEEK 12,84,TREATMENT,2014-09-25T15:40,87
CDISCPILOT01,LB,01-701-1034,209,CA,Calcium,CHEMISTRY,9.6,mg/dL,8.4,10.3,2.3952,2.3952,mmol/L,2.1,2.57,NORMAL,,10,WEEK 16,112,TREATMENT,2014-10-21T09:52,113
CDISCPILOT01,LB,01-701-1034,240,CA,Calcium,CHEMISTRY,9.6,mg/dL,8.4,10.3,2.3952,2.3952,mmol/L,2.1,2.57,NORMAL,,11,WEEK 20,140,TREATMENT,2014-11-18T12:23,141
CDISCPILOT01,LB,01-701-1034,271,CA,Calcium,CHEMISTRY,10.0,mg/dL,8.4,10.3,2.495,2.495,mmol/L,2.1,2.57,NORMAL,,12,WEEK 24,168,TREATMENT,2014-12-17T14:27,170
CDISCPILOT01,LB,01-701-1034,308,CA,Calcium,CHEMISTRY,9.6,mg/dL,8.4,10.3,2.3952,2.3952,mmol/L,2.1,2.57,NORMAL,,13,WEEK 26,182,TREATMENT,2014-12-30T09:50,183
CDISCPILOT01,LB,01-701-1034,10,CHOL,Cholesterol,CHEMISTRY,298,mg/dL,156,300,7.70628,7.70628,mmol/L,4.03,7.76,NORMAL,Y,1,SCREENING 1,-7,SCREENING,2014-06-24T15:30,-7
CDISCPILOT01,LB,01-701-1034,47,CHOL,Cholesterol,CHEMISTRY,271,mg/dL,156,300,7.00806,7.00806,mmol/L,4.03,7.76,NORMAL,,4,WEEK 2,14,TREATMENT,2014-07-15T09:25,15
CDISCPILOT01,LB,01-701-1034,84,CHOL,Cholesterol,CHEMISTRY,284,mg/dL,156,300,7.34424,7.34424,mmol/L,4.03,7.76,NORMAL,,5,WEEK 4,28,TREATMENT,2014-07-29T08:40,29
CDISCPILOT01,LB,01-701-1034,115,CHOL,Cholesterol,CHEMISTRY,223,mg/dL,156,300,5.76678,5.76678,mmol/L,4.03,7.76,NORMAL,,7,WEEK 6,42,TREATMENT,2014-08-11T13:15,42
CDISCPILOT01,LB,01-701-1034,145,CHOL,Cholesterol,CHEMISTRY,291,mg/dL,156,300,7.52526,7.52526,mmol/L,4.03,7.76,NORMAL,,8,WEEK 8,56,TREATMENT,2014-08-26T09:57,57
CDISCPILOT01,LB,01-701-1034,175,CHOL,Cholesterol,CHEMISTRY,261,mg/dL,156,300,6.74946,6.74946,mmol/L,4.03,7.76,NORMAL,,9,WEEK 12,84,TREATMENT,2014-09-25T15:40,87
CDISCPILOT01,LB,01-701-1034,210,CHOL,Cholesterol,CHEMISTRY,277,mg/dL,156,300,7.16322,7.16322,mmol/L,4.03,7.76,NORMAL,,10,WEEK 16,112,TREATMENT,2014-10-21T09:52,113
CDISCPILOT01,LB,01-701-1034,241,CHOL,Cholesterol,CHEMISTRY,236,mg/dL,156,300,6.10296,6.10296,mmol/L,4.03,7.76,NORMAL,,11,WEEK 20,140,TREATMENT,2014-11-18T12:23,141
CDISCPILOT01,LB,01-701-1034,272,CHOL,Cholesterol,CHEMISTRY,236,mg/dL,156,300,6.10296,6.10296,mmol/L,4.03,7.76,NORMAL,,12,WEEK 24,168,TREATMENT,2014-12-17T14:27,170
CDISCPILOT01,LB,01-701-1034,309,CHOL,Cholesterol,CHEMISTRY,208,mg/dL,156,300,5.37888,5.37888,mmol/L,4.03,7.76,NORMAL,,13,WEEK 26,182,TREATMENT,2014-12-30T09:50,183
CDISCPILOT01,LB,01-701-1034,11,CK,Creatine Kinase,CHEMISTRY,65,U/L,21,169,65,65,U/L,21,169,NORMAL,Y,1,SCREENING 1,-7,SCREENING,2014-06-24T15:30,-7
CDISCPILOT01,LB,01-701-1034,48,CK,Creatine Kinase,CHEMISTRY,50,U/L,21,169,50,50,U/L,21,169,NORMAL,,4,WEEK 2,14,TREATMENT,2014-07-15T09:25,15
CDISCPILOT01,LB,01-701-1034,85,CK,Creatine Kinase,CHEMISTRY,72,U/L,21,169,72,72,U/L,21,169,NORMAL,,5,WEEK 4,28,TREATMENT,2014-07-29T08:40,29
CDISCPILOT01,LB,01-701-1034,116,CK,Creatine Kinase,CHEMISTRY,58,U/L,21,169,58,58,U/L,21,169,NORMAL,,7,WEEK 6,42,TREATMENT,2014-08-11T13:15,42
CDISCPILOT01,LB,01-701-1034,146,CK,Creatine Kinase,CHEMISTRY,90,U/L,21,169,90,90,U/L,21,169,NORMAL,,8,WEEK 8,56,TREATMENT,2014-08-26T09:57,57
CDISCPILOT01,LB,01-701-1034,176,CK,Creatine Kinase,CHEMISTRY,72,U/L,21,169,72,72,U/L,21,169,NORMAL,,9,WEEK 12,84,TREATMENT,2014-09-25T15:40,87
CDISCPILOT01,LB,01-701-1034,211,CK,Creatine Kinase,CHEMISTRY,55,U/L,21,169,55,55,U/L,21,169,NORMAL,,10,WEEK 16,112,TREATMENT,2014-10-21T09:52,113
CDISCPILOT01,LB,01-701-1034,242,CK,Creatine Kinase,CHEMISTRY,54,U/L,21,169,54,54,U/L,21,169,NORMAL,,11,WEEK 20,140,TREATMENT,2014-11-18T12:23,141
CDISCPILOT01,LB,01-701-1034,273,CK,Creatine Kinase,CHEMISTRY,57,U/L,21,169,57,57,U/L,21,169,NORMAL,,12,WEEK 24,168,TREATMENT,2014-12-17T14:27,170
CDISCPILOT01,LB,01-701-1034,310,CK,Creatine Kinase,CHEMISTRY,54,U/L,21,169,54,54,U/L,21,169,NORMAL,,13,WEEK 26,182,TREATMENT,2014-12-30T09:50,183
CDISCPILOT01,LB,01-701-1034,12,CL,Chloride,CHEMISTRY,100,mEq/L,94,112,100,100,mmol/L,94,112,NORMAL,Y,1,SCREENING 1,-7,SCREENING,2014-06-24T15:30,-7
CDISCPILOT01,LB,01-701-1034,49,CL,Chloride,CHEMISTRY,103,mEq/L,94,112,103,103,mmol/L,94,112,NORMAL,,4,WEEK 2,14,TREATMENT,2014-07-15T09:25,15
CDISCPILOT01,LB,01-701-1034,86,CL,Chloride,CHEMISTRY,102,mEq/L,94,112,102,102,mmol/L,94,112,NORMAL,,5,WEEK 4,28,TREATMENT,2014-07-29T08:40,29
CDISCPILOT01,LB,01-701-1034,117,CL,Chloride,CHEMISTRY,104,mEq/L,94,112,104,104,mmol/L,94,112,NORMAL,,7,WEEK 6,42,TREATMENT,2014-08-11T13:15,42
CDISCPILOT01,LB,01-701-1034,147,CL,Chloride,CHEMISTRY,104,mEq/L,94,112,104,104,mmol/L,94,112,NORMAL,,8,WEEK 8,56,TREATMENT,2014-08-26T09:57,57
CDISCPILOT01,LB,01-701-1034,177,CL,Chloride,CHEMISTRY,103,mEq/L,94,112,103,103,mmol/L,94,112,NORMAL,,9,WEEK 12,84,TREATMENT,2014-09-25T15:40,87
CDISCPILOT01,LB,01-701-1034,212,CL,Chloride,CHEMISTRY,102,mEq/L,94,112,102,102,mmol/L,94,112,NORMAL,,10,WEEK 16,112,TREATMENT,2014-10-21T09:52,113
CDISCPILOT01,LB,01-701-1034,243,CL,Chloride,CHEMISTRY,102,mEq/L,94,112,102,102,mmol/L,94,112,NORMAL,,11,WEEK 20,140,TREATMENT,2014-11-18T12:23,141
CDISCPILOT01,LB,01-701-1034,274,CL,Chloride,CHEMISTRY,98,mEq/L,94,112,98,98,mmol/L,94,112,NORMAL,,12,WEEK 24,168,TREATMENT,2014-12-17T14:27,170
CDISCPILOT01,LB,01-701-1034,311,CL,Chloride,CHEMISTRY,100,mEq/L,94,112,100,100,mmol/L,94,112,NORMAL,,13,WEEK 26,182,TREATMENT,2014-12-30T09:50,183
CDISCPILOT01,LB,01-701-1034,14,CREAT,Creatinine,CHEMISTRY,1.0,mg/dL,0.7,1.4,88.4,88.4,umol/L,62,124,NORMAL,Y,1,SCREENING 1,-7,SCREENING,2014-06-24T15:30,-7
CDISCPILOT01,LB,01-701-1034,51,CREAT,Creatinine,CHEMISTRY,1.0,mg/dL,0.7,1.4,88.4,88.4,umol/L,62,124,NORMAL,,4,WEEK 2,14,TREATMENT,2014-07-15T09:25,15
CDISCPILOT01,LB,01-701-1034,87,CREAT,Creatinine,CHEMISTRY,0.9,mg/dL,0.7,1.4,79.56,79.56,umol/L,62,124,NORMAL,,5,WEEK 4,28,TREATMENT,2014-07-29T08:40,29
CDISCPILOT01,LB,01-701-1034,118,CREAT,Creatinine,CHEMISTRY,0.9,mg/dL,0.7,1.4,79.56,79.56,umol/L,62,124,NORMAL,,7,WEEK 6,42,TREATMENT,2014-08-11T13:15,42
CDISCPILOT01,LB,01-701-1034,148,CREAT,Creatinine,CHEMISTRY,0.9,mg/dL,0.7,1.4,79.56,79.56,umol/L,62,124,NORMAL,,8,WEEK 8,56,TREATMENT,2014-08-26T09:57,57
CDISCPILOT01,LB,01-701-1034,179,CREAT,Creatinine,CHEMISTRY,1.1,mg/dL,0.7,1.4,97.24,97.24,umol/L,62,124,NORMAL,,9,WEEK 12,84,TREATMENT,2014-09-25T15:40,87
CDISCPILOT01,LB,01-701-1034,213,CREAT,Creatinine,CHEMISTRY,1.1,mg/dL,0.7,1.4,97.24,97.24,umol/L,62,124,NORMAL,,10,WEEK 16,112,TREATMENT,2014-10-21T09:52,113
CDISCPILOT01,LB,01-701-1034,244,CREAT,Creatinine,CHEMISTRY,0.9,mg/dL,0.7,1.4,79.56,79.56,umol/L,62,124,NORMAL,,11,WEEK 20,140,TREATMENT,2014-11-18T12:23,141
CDISCPILOT01,LB,01-701-1034,276,CREAT,Creatinine,CHEMISTRY,0.9,mg/dL,0.7,1.4,79.56,79.56,umol/L,62,124,NORMAL,,12,WEEK 24,168,TREATMENT,2014-12-17T14:27,170
CDISCPILOT01,LB,01-701-1034,312,CREAT,Creatinine,CHEMISTRY,0.8,mg/dL,0.7,1.4,70.72,70.72,umol/L,62,124,NORMAL,,13,WEEK 26,182,TREATMENT,2014-12-30T09:50,183
CDISCPILOT01,LB,01-701-1034,16,GGT,Gamma Glutamyl Transferase,CHEMISTRY,20,U/L,5,50,20,20,U/L,5,50,NORMAL,Y,1,SCREENING 1,-7,SCREENING,2014-06-24T15:30,-7
CDISCPILOT01,LB,01-701-1034,53,GGT,Gamma Glutamyl Transferase,CHEMISTRY,19,U/L,5,50,19,19,U/L,5,50,NORMAL,,4,WEEK 2,14,TREATMENT,2014-07-15T09:25,15
CDISCPILOT01,LB,01-701-1034,89,GGT,Gamma Glutamyl Transferase,CHEMISTRY,21,U/L,5,50,21,21,U/L,5,50,NORMAL,,5,WEEK 4,28,TREATMENT,2014-07-29T08:40,29
CDISCPILOT01,LB,01-701-1034,120,GGT,Gamma Glutamyl Transferase,CHEMISTRY,15,U/L,5,50,15,15,U/L,5,50,NORMAL,,7,WEEK 6,42,TREATMENT,2014-08-11T13:15,42
CDISCPILOT01,LB,01-701-1034,150,GGT,Gamma Glutamyl Transferase,CHEMISTRY,17,U/L,5,50,17,17,U/L,5,50,NORMAL,,8,WEEK 8,56,TREATMENT,2014-08-26T09:57,57
CDISCPILOT01,LB,01-701-1034,181,GGT,Gamma Glutamyl Transferase,CHEMISTRY,14,U/L,5,50,14,14,U/L,5,50,NORMAL,,9,WEEK 12,84,TREATMENT,2014-09-25T15:40,87
CDISCPILOT01,LB,01-701-1034,215,GGT,Gamma Glutamyl Transferase,CHEMISTRY,18,U/L,5,50,18,18,U/L,5,50,NORMAL,,10,WEEK 16,112,TREATMENT,2014-10-21T09:52,113
CDISCPILOT01,LB,01-701-1034,246,GGT,Gamma Glutamyl Transferase,CHEMISTRY,21,U/L,5,50,21,21,U/L,5,50,NORMAL,,11,WEEK 20,140,TREATMENT,2014-11-18T12:23,141
CDISCPILOT01,LB,01-701-1034,278,GGT,Gamma Glutamyl Transferase,CHEMISTRY,17,U/L,5,50,17,17,U/L,5,50,NORMAL,,12,WEEK 24,168,TREATMENT,2014-12-17T14:27,170
CDISCPILOT01,LB,01-701-1034,314,GGT,Gamma Glutamyl Transferase,CHEMISTRY,15,U/L,5,50,15,15,U/L,5,50,NORMAL,,13,WEEK 26,182,TREATMENT,2014-12-30T09:50,183
CDISCPILOT01,LB,01-701-1034,17,GLUC,Glucose,CHEMISTRY,81,mg/dL,50,250,4.49631,4.49631,mmol/L,2.8,13.9,NORMAL,Y,1,SCREENING 1,-7,SCREENING,2014-06-24T15:30,-7
CDISCPILOT01,LB,01-701-1034,54,GLUC,Glucose,CHEMISTRY,85,mg/dL,50,250,4.71835,4.71835,mmol/L,2.8,13.9,NORMAL,,4,WEEK 2,14,TREATMENT,2014-07-15T09:25,15
CDISCPILOT01,LB,01-701-1034,90,GLUC,Glucose,CHEMISTRY,83,mg/dL,50,250,4.60733,4.60733,mmol/L,2.8,13.9,NORMAL,,5,WEEK 4,28,TREATMENT,2014-07-29T08:40,29
CDISCPILOT01,LB,01-701-1034,121,GLUC,Glucose,CHEMISTRY,98,mg/dL,50,250,5.43998,5.43998,mmol/L,2.8,13.9,NORMAL,,7,WEEK 6,42,TREATMENT,2014-08-11T13:15,42
CDISCPILOT01,LB,01-701-1034,151,GLUC,Glucose,CHEMISTRY,86,mg/dL,50,250,4.77386,4.77386,mmol/L,2.8,13.9,NORMAL,,8,WEEK 8,56,TREATMENT,2014-08-26T09:57,57
CDISCPILOT01,LB,01-701-1034,182,GLUC,Glucose,CHEMISTRY,91,mg/dL,50,250,5.05141,5.05141,mmol/L,2.8,13.9,NORMAL,,9,WEEK 12,84,TREATMENT,2014-09-25T15:40,87
CDISCPILOT01,LB,01-701-1034,216,GLUC,Glucose,CHEMISTRY,92,mg/dL,50,250,5.10692,5.10692,mmol/L,2.8,13.9,NORMAL,,10,WEEK 16,112,TREATMENT,2014-10-21T09:52,113
CDISCPILOT01,LB,01-701-1034,247,GLUC,Glucose,CHEMISTRY,87,mg/dL,50,250,4.82937,4.82937,mmol/L,2.8,13.9,NORMAL,,11,WEEK 20,140,TREATMENT,2014-11-18T12:23,141
CDISCPILOT01,LB,01-701-1034,279,GLUC,Glucose,CHEMISTRY,92,mg/dL,50,250,5.10692,5.10692,mmol/L,2.8,13.9,NORMAL,,12,WEEK 24,168,TREATMENT,2014-12-17T14:27,170
CDISCPILOT01,LB,01-701-1034,315,GLUC,Glucose,CHEMISTRY,86,mg/dL,50,250,4.77386,4.77386,mmol/L,2.8,13.9,NORMAL,,13,WEEK 26,182,TREATMENT,2014-12-30T09:50,183
CDISCPILOT01,LB,01-701-1034,20,K,Potassium,CHEMISTRY,4.4,mEq/L,3.4,5.4,4.4,4.4,mmol/L,3.4,5.4,NORMAL,Y,1,SCREENING 1,-7,SCREENING,2014-06-24T15:30,-7
CDISCPILOT01,LB,01-701-1034,57,K,Potassium,CHEMISTRY,4.6,mEq/L,3.4,5.4,4.6,4.6,mmol/L,3.4,5.4,NORMAL,,4,WEEK 2,14,TREATMENT,2014-07-15T09:25,15
CDISCPILOT01,LB,01-701-1034,93,K,Potassium,CHEMISTRY,4.4,mEq/L,3.4,5.4,4.4,4.4,mmol/L,3.4,5.4,NORMAL,,5,WEEK 4,28,TREATMENT,2014-07-29T08:40,29
CDISCPILOT01,LB,01-701-1034,124,K,Potassium,CHEMISTRY,4.1,mEq/L,3.4,5.4,4.1,4.1,mmol/L,3.4,5.4,NORMAL,,7,WEEK 6,42,TREATMENT,2014-08-11T13:15,42
CDISCPILOT01,LB,01-701-1034,154,K,Potassium,CHEMISTRY,4.8,mEq/L,3.4,5.4,4.8,4.8,mmol/L,3.4,5.4,NORMAL,,8,WEEK 8,56,TREATMENT,2014-08-26T09:57,57
CDISCPILOT01,LB,01-701-1034,185,K,Potassium,CHEMISTRY,4.2,mEq/L,3.4,5.4,4.2,4.2,mmol/L,3.4,5.4,NORMAL,,9,WEEK 12,84,TREATMENT,2014-09-25T15:40,87
CDISCPILOT01,LB,01-701-1034,219,K,Potassium,CHEMISTRY,4.7,mEq/L,3.4,5.4,4.7,4.7,mmol/L,3.4,5.4,NORMAL,,10,WEEK 16,112,TREATMENT,2014-10-21T09:52,113
CDISCPILOT01,LB,01-701-1034,250,K,Potassium,CHEMISTRY,4.5,mEq/L,3.4,5.4,4.5,4.5,mmol/L,3.4,5.4,NORMAL,,11,WEEK 20,140,TREATMENT,2014-11-18T12:23,141
CDISCPILOT01,LB,01-701-1034,282,K,Potassium,CHEMISTRY,4.5,mEq/L,3.4,5.4,4.5,4.5,mmol/L,3.4,5.4,NORMAL,,12,WEEK 24,168,TREATMENT,2014-12-17T14:27,170
CDISCPILOT01,LB,01-701-1034,318,K,Potassium,CHEMISTRY,4.2,mEq/L,3.4,5.4,4.2,4.2,mmol/L,3.4,5.4,NORMAL,,13,WEEK 26,182,TREATMENT,2014-12-30T09:50,183
CDISCPILOT01,LB,01-701-1034,27,SODIUM,Sodium,CHEMISTRY,138,mEq/L,135,145,138,138,mmol/L,135,145,NORMAL,Y,1,SCREENING 1,-7,SCREENING,2014-06-24T15:30,-7
CDISCPILOT01,LB,01-701-1034,65,SODIUM,Sodium,CHEMISTRY,140,mEq/L,135,145,140,140,mmol/L,135,145,NORMAL,,4,WEEK 2,14,TREATMENT,2014-07-15T09:25,15
CDISCPILOT01,LB,01-701-1034,99,SODIUM,Sodium,CHEMISTRY,138,mEq/L,135,145,138,138,mmol/L,135,145,NORMAL,,5,WEEK 4,28,TREATMENT,2014-07-29T08:40,29
CDISCPILOT01,LB,01-701-1034,130,SODIUM,Sodium,CHEMISTRY,143,mEq/L,135,145,143,143,mmol/L,135,145,NORMAL,,7,WEEK 6,42,TREATMENT,2014-08-11T13:15,42
CDISCPILOT01,LB,01-701-1034,160,SODIUM,Sodium,CHEMISTRY,139,mEq/L,135,145,139,139,mmol/L,135,145,NORMAL,,8,WEEK 8,56,TREATMENT,2014-08-26T09:57,57
CDISCPILOT01,LB,01-701-1034,192,SODIUM,Sodium,CHEMISTRY,138,mEq/L,135,145,138,138,mmol/L,135,145,NORMAL,,9,WEEK 12,84,TREATMENT,2014-09-25T15:40,87
CDISCPILOT01,LB,01-701-1034,226,SODIUM,Sodium,CHEMISTRY,139,mEq/L,135,145,139,139,mmol/L,135,145,NORMAL,,10,WEEK 16,112,TREATMENT,2014-10-21T09:52,113
CDISCPILOT01,LB,01-701-1034,257,SODIUM,Sodium,CHEMISTRY,138,mEq/L,135,145,138,138,mmol/L,135,145,NORMAL,,11,WEEK 20,140,TREATMENT,2014-11-18T12:23,141
CDISCPILOT01,LB,01-701-1034,290,SODIUM,Sodium,CHEMISTRY,134,mEq/L,135,145,134,134,mmol/L,135,145,LOW,,12,WEEK 24,168,TREATMENT,2014-12-17T14:27,170
CDISCPILOT01,LB,01-701-1034,324,SODIUM,Sodium,CHEMISTRY,134,mEq/L,135,145,134,134,mmol/L,135,145,LOW,,13,WEEK 26,182,TREATMENT,2014-12-30T09:50,183
CDISCPILOT01,LB,01-701-1034,29,PHOS,Phosphate,CHEMISTRY,4.2,mg/dL,2.2,5.1,1.35618,1.35618,mmol/L,0.71,1.65,NORMAL,Y,1,SCREENING 1,-7,SCREENING,2014-06-24T15:30,-7
CDISCPILOT01,LB,01-701-1034,67,PHOS,Phosphate,CHEMISTRY,4.3,mg/dL,2.2,5.1,1.38847,1.38847,mmol/L,0.71,1.65,NORMAL,,4,WEEK 2,14,TREATMENT,2014-07-15T09:25,15
CDISCPILOT01,LB,01-701-1034,100,PHOS,Phosphate,CHEMISTRY,3.7,mg/dL,2.2,5.1,1.19473,1.19473,mmol/L,0.71,1.65,NORMAL,,5,WEEK 4,28,TREATMENT,2014-07-29T08:40,29
CDISCPILOT01,LB,01-701-1034,131,PHOS,Phosphate,CHEMISTRY,3.6,mg/dL,2.2,5.1,1.16244,1.16244,mmol/L,0.71,1.65,NORMAL,,7,WEEK 6,42,TREATMENT,2014-08-11T13:15,42
CDISCPILOT01,LB,01-701-1034,161,PHOS,Phosphate,CHEMISTRY,4.0,mg/dL,2.2,5.1,1.2916,1.2916,mmol/L,0.71,1.65,NORMAL,,8,WEEK 8,56,TREATMENT,2014-08-26T09:57,57
CDISCPILOT01,LB,01-701-1034,194,PHOS,Phosphate,CHEMISTRY,4.7,mg/dL,2.2,5.1,1.51763,1.51763,mmol/L,0.71,1.65,NORMAL,,9,WEEK 12,84,TREATMENT,2014-09-25T15:40,87
CDISCPILOT01,LB,01-701-1034,227,PHOS,Phosphate,CHEMISTRY,3.8,mg/dL,2.2,5.1,1.22702,1.22702,mmol/L,0.71,1.65,NORMAL,,10,WEEK 16,112,TREATMENT,2014-10-21T09:52,113
CDISCPILOT01,LB,01-701-1034,258,PHOS,Phosphate,CHEMISTRY,4.1,mg/dL,2.2,5.1,1.32389,1.32389,mmol/L,0.71,1.65,NORMAL,,11,WEEK 20,140,TREATMENT,2014-11-18T12:23,141
CDISCPILOT01,LB,01-701-1034,292,PHOS,Phosphate,CHEMISTRY,4.5,mg/dL,2.2,5.1,1.45305,1.45305,mmol/L,0.71,1.65,NORMAL,,12,WEEK 24,168,TREATMENT,2014-12-17T14:27,170
CDISCPILOT01,LB,01-701-1034,325,PHOS,Phosphate,CHEMISTRY,3.8,mg/dL,2.2,5.1,1.22702,1.22702,mmol/L,0.71,1.65,NORMAL,,13,WEEK 26,182,TREATMENT,2014-12-30T09:50,183
CDISCPILOT01,LB,01-701-1034,31,PROT,Protein,CHEMISTRY,7.5,g/dL,6,8,75,75,g/L,60,80,NORMAL,Y,1,SCREENING 1,-7,SCREENING,2014-06-24T15:30,-7
CDISCPILOT01,LB,01-701-1034,69,PROT,Protein,CHEMISTRY,7.4,g/dL,6,8,74,74,g/L,60,80,NORMAL,,4,WEEK 2,14,TREATMENT,2014-07-15T09:25,15
CDISCPILOT01,LB,01-701-1034,102,PROT,Protein,CHEMISTRY,7.1,g/dL,6,8,71,71,g/L,60,80,NORMAL,,5,WEEK 4,28,TREATMENT,2014-07-29T08:40,29
CDISCPILOT01,LB,01-701-1034,133,PROT,Protein,CHEMISTRY,6.9,g/dL,6,8,69,69,g/L,60,80,NORMAL,,7,WEEK 6,42,TREATMENT,2014-08-11T13:15,42
CDISCPILOT01,LB,01-701-1034,163,PROT,Protein,CHEMISTRY,7.4,g/dL,6,8,74,74,g/L,60,80,NORMAL,,8,WEEK 8,56,TREATMENT,2014-08-26T09:57,57
CDISCPILOT01,LB,01-701-1034,196,PROT,Protein,CHEMISTRY,7.0,g/dL,6,8,70,70,g/L,60,80,NORMAL,,9,WEEK 12,84,TREATMENT,2014-09-25T15:40,87
CDISCPILOT01,LB,01-701-1034,229,PROT,Protein,CHEMISTRY,6.9,g/dL,6,8,69,69,g/L,60,80,NORMAL,,10,WEEK 16,112,TREATMENT,2014-10-21T09:52,113
CDISCPILOT01,LB,01-701-1034,260,PROT,Protein,CHEMISTRY,7.0,g/dL,6,8,70,70,g/L,60,80,NORMAL,,11,WEEK 20,140,TREATMENT,2014-11-18T12:23,141
CDISCPILOT01,LB,01-701-1034,294,PROT,Protein,CHEMISTRY,7.2,g/dL,6,8,72,72,g/L,60,80,NORMAL,,12,WEEK 24,168,TREATMENT,2014-12-17T14:27,170
CDISCPILOT01,LB,01-701-1034,327,PROT,Protein,CHEMISTRY,6.9,g/dL,6,8,69,69,g/L,60,80,NORMAL,,13,WEEK 26,182,TREATMENT,2014-12-30T09:50,183
CDISCPILOT01,LB,01-701-1034,35,URATE,Urate,CHEMISTRY,5.2,mg/dL,2.5,7.5,309.296,309.296,umol/L,149,446,NORMAL,Y,1,SCREENING 1,-7,SCREENING,2014-06-24T15:30,-7
CDISCPILOT01,LB,01-701-1034,72,URATE,Urate,CHEMISTRY,5.8,mg/dL,2.5,7.5,344.984,344.984,umol/L,149,446,NORMAL,,4,WEEK 2,14,TREATMENT,2014-07-15T09:25,15
CDISCPILOT01,LB,01-701-1034,104,URATE,Urate,CHEMISTRY,5.9,mg/dL,2.5,7.5,350.932,350.932,umol/L,149,446,NORMAL,,5,WEEK 4,28,TREATMENT,2014-07-29T08:40,29
CDISCPILOT01,LB,01-701-1034,135,URATE,Urate,CHEMISTRY,5.4,mg/dL,2.5,7.5,321.192,321.192,umol/L,149,446,NORMAL,,7,WEEK 6,42,TREATMENT,2014-08-11T13:15,42
CDISCPILOT01,LB,01-701-1034,165,URATE,Urate,CHEMISTRY,5.4,mg/dL,2.5,7.5,321.192,321.192,umol/L,149,446,NORMAL,,8,WEEK 8,56,TREATMENT,2014-08-26T09:57,57
CDISCPILOT01,LB,01-701-1034,199,URATE,Urate,CHEMISTRY,5.3,mg/dL,2.5,7.5,315.244,315.244,umol/L,149,446,NORMAL,,9,WEEK 12,84,TREATMENT,2014-09-25T15:40,87
CDISCPILOT01,LB,01-701-1034,231,URATE,Urate,CHEMISTRY,5.4,mg/dL,2.5,7.5,321.192,321.192,umol/L,149,446,NORMAL,,10,WEEK 16,112,TREATMENT,2014-10-21T09:52,113
CDISCPILOT01,LB,01-701-1034,262,URATE,Urate,CHEMISTRY,5.4,mg/dL,2.5,7.5,321.192,321.192,umol/L,149,446,NORMAL,,11,WEEK 20,140,TREATMENT,2014-11-18T12:23,141
CDISCPILOT01,LB,01-701-1034,297,URATE,Urate,CHEMISTRY,4.9,mg/dL,2.5,7.5,291.452,291.452,umol/L,149,446,NORMAL,,12,WEEK 24,168,TREATMENT,2014-12-17T14:27,170
CDISCPILOT01,LB,01-701-1034,329,URATE,Urate,CHEMISTRY,5.1,mg/dL,2.5,7.5,303.348,303.348,umol/L,149,446,NORMAL,,13,WEEK 26,182,TREATMENT,2014-12-30T09:50,183
CDISCPILOT01,LB,01-701-1047,1,ALB,Albumin,CHEMISTRY,4.2,g/dL,3.5,4.6,42,42,g/L,35,46,NORMAL,Y,1,SCREENING 1,-7,SCREENING,2013-01-22T14:36,-21
CDISCPILOT01,LB,01-701-1047,38,ALB,Albumin,CHEMISTRY,3.8,g/dL,3.5,4.6,38,38,g/L,35,46,NORMAL,,4,WEEK 2,14,TREATMENT,2013-02-25T12:10,14
CDISCPILOT01,LB,01-701-1047,73,ALB,Albumin,CHEMISTRY,3.8,g/dL,3.5,4.6,38,38,g/L,35,46,NORMAL,,5,WEEK 4,28,TREATMENT,2013-03-10T13:53,27
CDISCPILOT01,LB,01-701-1047,120,ALB,Albumin,CHEMISTRY,3.8,g/dL,3.5,4.6,38,38,g/L,35,46,NORMAL,,6.1,UNSCHEDULED 6.1,NA,TREATMENT,2013-04-07T11:20,55
CDISCPILOT01,LB,01-701-1047,2,ALP,Alkaline Phosphatase,CHEMISTRY,78,U/L,35,115,78,78,U/L,35,115,NORMAL,Y,1,SCREENING 1,-7,SCREENING,2013-01-22T14:36,-21
CDISCPILOT01,LB,01-701-1047,39,ALP,Alkaline Phosphatase,CHEMISTRY,67,U/L,35,115,67,67,U/L,35,115,NORMAL,,4,WEEK 2,14,TREATMENT,2013-02-25T12:10,14
CDISCPILOT01,LB,01-701-1047,74,ALP,Alkaline Phosphatase,CHEMISTRY,71,U/L,35,115,71,71,U/L,35,115,NORMAL,,5,WEEK 4,28,TREATMENT,2013-03-10T13:53,27
CDISCPILOT01,LB,01-701-1047,121,ALP,Alkaline Phosphatase,CHEMISTRY,75,U/L,35,115,75,75,U/L,35,115,NORMAL,,6.1,UNSCHEDULED 6.1,NA,TREATMENT,2013-04-07T11:20,55
CDISCPILOT01,LB,01-701-1047,3,ALT,Alanine Aminotransferase,CHEMISTRY,22,U/L,6,32,22,22,U/L,6,32,NORMAL,Y,1,SCREENING 1,-7,SCREENING,2013-01-22T14:36,-21
CDISCPILOT01,LB,01-701-1047,40,ALT,Alanine Aminotransferase,CHEMISTRY,16,U/L,6,32,16,16,U/L,6,32,NORMAL,,4,WEEK 2,14,TREATMENT,2013-02-25T12:10,14
CDISCPILOT01,LB,01-701-1047,75,ALT,Alanine Aminotransferase,CHEMISTRY,20,U/L,6,32,20,20,U/L,6,32,NORMAL,,5,WEEK 4,28,TREATMENT,2013-03-10T13:53,27
CDISCPILOT01,LB,01-701-1047,122,ALT,Alanine Aminotransferase,CHEMISTRY,17,U/L,6,32,17,17,U/L,6,32,NORMAL,,6.1,UNSCHEDULED 6.1,NA,TREATMENT,2013-04-07T11:20,55
CDISCPILOT01,LB,01-701-1047,4,AST,Aspartate Aminotransferase,CHEMISTRY,25,U/L,9,34,25,25,U/L,9,34,NORMAL,Y,1,SCREENING 1,-7,SCREENING,2013-01-22T14:36,-21
CDISCPILOT01,LB,01-701-1047,41,AST,Aspartate Aminotransferase,CHEMISTRY,21,U/L,9,34,21,21,U/L,9,34,NORMAL,,4,WEEK 2,14,TREATMENT,2013-02-25T12:10,14
CDISCPILOT01,LB,01-701-1047,76,AST,Aspartate Aminotransferase,CHEMISTRY,24,U/L,9,34,24,24,U/L,9,34,NORMAL,,5,WEEK 4,28,TREATMENT,2013-03-10T13:53,27
CDISCPILOT01,LB,01-701-1047,123,AST,Aspartate Aminotransferase,CHEMISTRY,21,U/L,9,34,21,21,U/L,9,34,NORMAL,,6.1,UNSCHEDULED 6.1,NA,TREATMENT,2013-04-07T11:20,55
CDISCPILOT01,LB,01-701-1047,6,BILI,Bilirubin,CHEMISTRY,0.4,mg/dL,0.2,1.2,6.84,6.84,umol/L,3,21,NORMAL,Y,1,SCREENING 1,-7,SCREENING,2013-01-22T14:36,-21
CDISCPILOT01,LB,01-701-1047,43,BILI,Bilirubin,CHEMISTRY,0.5,mg/dL,0.2,1.2,8.55,8.55,umol/L,3,21,NORMAL,,4,WEEK 2,14,TREATMENT,2013-02-25T12:10,14
CDISCPILOT01,LB,01-701-1047,78,BILI,Bilirubin,CHEMISTRY,0.4,mg/dL,0.2,1.2,6.84,6.84,umol/L,3,21,NORMAL,,5,WEEK 4,28,TREATMENT,2013-03-10T13:53,27
CDISCPILOT01,LB,01-701-1047,124,BILI,Bilirubin,CHEMISTRY,0.4,mg/dL,0.2,1.2,6.84,6.84,umol/L,3,21,NORMAL,,6.1,UNSCHEDULED 6.1,NA,TREATMENT,2013-04-07T11:20,55
CDISCPILOT01,LB,01-701-1047,7,UREAN,Urea Nitrogen,CHEMISTRY,18,mg/dL,4,24,6.426,6.426,mmol/L,1.4,8.6,NORMAL,Y,1,SCREENING 1,-7,SCREENING,2013-01-22T14:36,-21
CDISCPILOT01,LB,01-701-1047,44,UREAN,Urea Nitrogen,CHEMISTRY,18,mg/dL,4,24,6.426,6.426,mmol/L,1.4,8.6,NORMAL,,4,WEEK 2,14,TREATMENT,2013-02-25T12:10,14
CDISCPILOT01,LB,01-701-1047,79,UREAN,Urea Nitrogen,CHEMISTRY,20,mg/dL,4,24,7.14,7.14,mmol/L,1.4,8.6,NORMAL,,5,WEEK 4,28,TREATMENT,2013-03-10T13:53,27
CDISCPILOT01,LB,01-701-1047,125,UREAN,Urea Nitrogen,CHEMISTRY,15,mg/dL,4,24,5.355,5.355,mmol/L,1.4,8.6,NORMAL,,6.1,UNSCHEDULED 6.1,NA,TREATMENT,2013-04-07T11:20,55
CDISCPILOT01,LB,01-701-1047,8,CA,Calcium,CHEMISTRY,9.2,mg/dL,8.4,10.3,2.2954,2.2954,mmol/L,2.1,2.57,NORMAL,Y,1,SCREENING 1,-7,SCREENING,2013-01-22T14:36,-21
CDISCPILOT01,LB,01-701-1047,45,CA,Calcium,CHEMISTRY,9.0,mg/dL,8.4,10.3,2.2455,2.2455,mmol/L,2.1,2.57,NORMAL,,4,WEEK 2,14,TREATMENT,2013-02-25T12:10,14
CDISCPILOT01,LB,01-701-1047,80,CA,Calcium,CHEMISTRY,8.5,mg/dL,8.4,10.3,2.12075,2.12075,mmol/L,2.1,2.57,NORMAL,,5,WEEK 4,28,TREATMENT,2013-03-10T13:53,27
CDISCPILOT01,LB,01-701-1047,126,CA,Calcium,CHEMISTRY,8.6,mg/dL,8.4,10.3,2.1457,2.1457,mmol/L,2.1,2.57,NORMAL,,6.1,UNSCHEDULED 6.1,NA,TREATMENT,2013-04-07T11:20,55
CDISCPILOT01,LB,01-701-1047,9,CHOL,Cholesterol,CHEMISTRY,235,mg/dL,156,300,6.0771,6.0771,mmol/L,4.03,7.76,NORMAL,Y,1,SCREENING 1,-7,SCREENING,2013-01-22T14:36,-21
CDISCPILOT01,LB,01-701-1047,46,CHOL,Cholesterol,CHEMISTRY,210,mg/dL,156,300,5.4306,5.4306,mmol/L,4.03,7.76,NORMAL,,4,WEEK 2,14,TREATMENT,2013-02-25T12:10,14
CDISCPILOT01,LB,01-701-1047,81,CHOL,Cholesterol,CHEMISTRY,182,mg/dL,156,300,4.70652,4.70652,mmol/L,4.03,7.76,NORMAL,,5,WEEK 4,28,TREATMENT,2013-03-10T13:53,27
CDISCPILOT01,LB,01-701-1047,127,CHOL,Cholesterol,CHEMISTRY,189,mg/dL,156,300,4.88754,4.88754,mmol/L,4.03,7.76,NORMAL,,6.1,UNSCHEDULED 6.1,NA,TREATMENT,2013-04-07T11:20,55
CDISCPILOT01,LB,01-701-1047,10,CK,Creatine Kinase,CHEMISTRY,90,U/L,21,169,90,90,U/L,21,169,NORMAL,Y,1,SCREENING 1,-7,SCREENING,2013-01-22T14:36,-21
CDISCPILOT01,LB,01-701-1047,47,CK,Creatine Kinase,CHEMISTRY,80,U/L,21,169,80,80,U/L,21,169,NORMAL,,4,WEEK 2,14,TREATMENT,2013-02-25T12:10,14
CDISCPILOT01,LB,01-701-1047,82,CK,Creatine Kinase,CHEMISTRY,77,U/L,21,169,77,77,U/L,21,169,NORMAL,,5,WEEK 4,28,TREATMENT,2013-03-10T13:53,27
CDISCPILOT01,LB,01-701-1047,128,CK,Creatine Kinase,CHEMISTRY,85,U/L,21,169,85,85,U/L,21,169,NORMAL,,6.1,UNSCHEDULED 6.1,NA,TREATMENT,2013-04-07T11:20,55
CDISCPILOT01,LB,01-701-1047,11,CL,Chloride,CHEMISTRY,105,mEq/L,94,112,105,105,mmol/L,94,112,NORMAL,Y,1,SCREENING 1,-7,SCREENING,2013-01-22T14:36,-21
CDISCPILOT01,LB,01-701-1047,48,CL,Chloride,CHEMISTRY,109,mEq/L,94,112,109,109,mmol/L,94,112,NORMAL,,4,WEEK 2,14,TREATMENT,2013-02-25T12:10,14
CDISCPILOT01,LB,01-701-1047,83,CL,Chloride,CHEMISTRY,108,mEq/L,94,112,108,108,mmol/L,94,112,NORMAL,,5,WEEK 4,28,TREATMENT,2013-03-10T13:53,27
CDISCPILOT01,LB,01-701-1047,13,CREAT,Creatinine,CHEMISTRY,1.0,mg/dL,0.7,1.4,88.4,88.4,umol/L,62,124,NORMAL,Y,1,SCREENING 1,-7,SCREENING,2013-01-22T14:36,-21
CDISCPILOT01,LB,01-701-1047,50,CREAT,Creatinine,CHEMISTRY,1.0,mg/dL,0.7,1.4,88.4,88.4,umol/L,62,124,NORMAL,,4,WEEK 2,14,TREATMENT,2013-02-25T12:10,14
CDISCPILOT01,LB,01-701-1047,84,CREAT,Creatinine,CHEMISTRY,0.9,mg/dL,0.7,1.4,79.56,79.56,umol/L,62,124,NORMAL,,5,WEEK 4,28,TREATMENT,2013-03-10T13:53,27
CDISCPILOT01,LB,01-701-1047,129,CREAT,Creatinine,CHEMISTRY,1.0,mg/dL,0.7,1.4,88.4,88.4,umol/L,62,124,NORMAL,,6.1,UNSCHEDULED 6.1,NA,TREATMENT,2013-04-07T11:20,55
CDISCPILOT01,LB,01-701-1047,15,GGT,Gamma Glutamyl Transferase,CHEMISTRY,14,U/L,5,50,14,14,U/L,5,50,NORMAL,Y,1,SCREENING 1,-7,SCREENING,2013-01-22T14:36,-21
CDISCPILOT01,LB,01-701-1047,52,GGT,Gamma Glutamyl Transferase,CHEMISTRY,12,U/L,5,50,12,12,U/L,5,50,NORMAL,,4,WEEK 2,14,TREATMENT,2013-02-25T12:10,14
CDISCPILOT01,LB,01-701-1047,86,GGT,Gamma Glutamyl Transferase,CHEMISTRY,12,U/L,5,50,12,12,U/L,5,50,NORMAL,,5,WEEK 4,28,TREATMENT,2013-03-10T13:53,27
CDISCPILOT01,LB,01-701-1047,130,GGT,Gamma Glutamyl Transferase,CHEMISTRY,11,U/L,5,50,11,11,U/L,5,50,NORMAL,,6.1,UNSCHEDULED 6.1,NA,TREATMENT,2013-04-07T11:20,55
CDISCPILOT01,LB,01-701-1047,16,GLUC,Glucose,CHEMISTRY,100,mg/dL,50,250,5.551,5.551,mmol/L,2.8,13.9,NORMAL,Y,1,SCREENING 1,-7,SCREENING,2013-01-22T14:36,-21
CDISCPILOT01,LB,01-701-1047,53,GLUC,Glucose,CHEMISTRY,100,mg/dL,50,250,5.551,5.551,mmol/L,2.8,13.9,NORMAL,,4,WEEK 2,14,TREATMENT,2013-02-25T12:10,14
CDISCPILOT01,LB,01-701-1047,87,GLUC,Glucose,CHEMISTRY,108,mg/dL,50,250,5.99508,5.99508,mmol/L,2.8,13.9,NORMAL,,5,WEEK 4,28,TREATMENT,2013-03-10T13:53,27
CDISCPILOT01,LB,01-701-1047,131,GLUC,Glucose,CHEMISTRY,69,mg/dL,50,250,3.83019,3.83019,mmol/L,2.8,13.9,NORMAL,,6.1,UNSCHEDULED 6.1,NA,TREATMENT,2013-04-07T11:20,55
CDISCPILOT01,LB,01-701-1047,19,K,Potassium,CHEMISTRY,4.3,mEq/L,3.4,5.4,4.3,4.3,mmol/L,3.4,5.4,NORMAL,Y,1,SCREENING 1,-7,SCREENING,2013-01-22T14:36,-21
CDISCPILOT01,LB,01-701-1047,56,K,Potassium,CHEMISTRY,3.9,mEq/L,3.4,5.4,3.9,3.9,mmol/L,3.4,5.4,NORMAL,,4,WEEK 2,14,TREATMENT,2013-02-25T12:10,14
CDISCPILOT01,LB,01-701-1047,90,K,Potassium,CHEMISTRY,3.9,mEq/L,3.4,5.4,3.9,3.9,mmol/L,3.4,5.4,NORMAL,,5,WEEK 4,28,TREATMENT,2013-03-10T13:53,27
CDISCPILOT01,LB,01-701-1047,26,SODIUM,Sodium,CHEMISTRY,144,mEq/L,135,145,144,144,mmol/L,135,145,NORMAL,Y,1,SCREENING 1,-7,SCREENING,2013-01-22T14:36,-21
CDISCPILOT01,LB,01-701-1047,63,SODIUM,Sodium,CHEMISTRY,141,mEq/L,135,145,141,141,mmol/L,135,145,NORMAL,,4,WEEK 2,14,TREATMENT,2013-02-25T12:10,14
CDISCPILOT01,LB,01-701-1047,96,SODIUM,Sodium,CHEMISTRY,142,mEq/L,135,145,142,142,mmol/L,135,145,NORMAL,,5,WEEK 4,28,TREATMENT,2013-03-10T13:53,27
CDISCPILOT01,LB,01-701-1047,28,PHOS,Phosphate,CHEMISTRY,4.1,mg/dL,2.2,5.1,1.32389,1.32389,mmol/L,0.71,1.65,NORMAL,Y,1,SCREENING 1,-7,SCREENING,2013-01-22T14:36,-21
CDISCPILOT01,LB,01-701-1047,65,PHOS,Phosphate,CHEMISTRY,3.0,mg/dL,2.2,5.1,0.9687,0.9687,mmol/L,0.71,1.65,NORMAL,,4,WEEK 2,14,TREATMENT,2013-02-25T12:10,14
CDISCPILOT01,LB,01-701-1047,97,PHOS,Phosphate,CHEMISTRY,3.1,mg/dL,2.2,5.1,1.00099,1.00099,mmol/L,0.71,1.65,NORMAL,,5,WEEK 4,28,TREATMENT,2013-03-10T13:53,27
CDISCPILOT01,LB,01-701-1047,132,PHOS,Phosphate,CHEMISTRY,2.5,mg/dL,2.2,5.1,0.80725,0.80725,mmol/L,0.71,1.65,NORMAL,,6.1,UNSCHEDULED 6.1,NA,TREATMENT,2013-04-07T11:20,55
CDISCPILOT01,LB,01-701-1047,30,PROT,Protein,CHEMISTRY,6.9,g/dL,6,8,69,69,g/L,60,80,NORMAL,Y,1,SCREENING 1,-7,SCREENING,2013-01-22T14:36,-21
CDISCPILOT01,LB,01-701-1047,67,PROT,Protein,CHEMISTRY,6.3,g/dL,6,8,63,63,g/L,60,80,NORMAL,,4,WEEK 2,14,TREATMENT,2013-02-25T12:10,14
CDISCPILOT01,LB,01-701-1047,99,PROT,Protein,CHEMISTRY,6.6,g/dL,6,8,66,66,g/L,60,80,NORMAL,,5,WEEK 4,28,TREATMENT,2013-03-10T13:53,27
CDISCPILOT01,LB,01-701-1047,133,PROT,Protein,CHEMISTRY,6.5,g/dL,6,8,65,65,g/L,60,80,NORMAL,,6.1,UNSCHEDULED 6.1,NA,TREATMENT,2013-04-07T11:20,55
CDISCPILOT01,LB,01-701-1047,34,URATE,Urate,CHEMISTRY,3.9,mg/dL,2.5,7.5,231.972,231.972,umol/L,149,446,NORMAL,Y,1,SCREENING 1,-7,SCREENING,2013-01-22T14:36,-21
CDISCPILOT01,LB,01-701-1047,70,URATE,Urate,CHEMISTRY,4.8,mg/dL,2.5,7.5,285.504,285.504,umol/L,149,446,NORMAL,,4,WEEK 2,14,TREATMENT,2013-02-25T12:10,14
CDISCPILOT01,LB,01-701-1047,101,URATE,Urate,CHEMISTRY,4.3,mg/dL,2.5,7.5,255.764,255.764,umol/L,149,446,NORMAL,,5,WEEK 4,28,TREATMENT,2013-03-10T13:53,27
CDISCPILOT01,LB,01-701-1047,134,URATE,Urate,CHEMISTRY,4.7,mg/dL,2.5,7.5,279.556,279.556,umol/L,149,446,NORMAL,,6.1,UNSCHEDULED 6.1,NA,TREATMENT,2013-04-07T11:20,55
CDISCPILOT01,LB,01-701-1097,1,ALB,Albumin,CHEMISTRY,4.3,g/dL,3.3,4.9,43,43,g/L,33,49,NORMAL,Y,1,SCREENING 1,-7,SCREENING,2013-12-23T12:30,-9
CDISCPILOT01,LB,01-701-1097,38,ALB,Albumin,CHEMISTRY,4.2,g/dL,3.3,4.9,42,42,g/L,33,49,NORMAL,,4,WEEK 2,14,TREATMENT,2014-01-15T10:03,15
CDISCPILOT01,LB,01-701-1097,73,ALB,Albumin,CHEMISTRY,4.2,g/dL,3.3,4.9,42,42,g/L,33,49,NORMAL,,5,WEEK 4,28,TREATMENT,2014-01-29T14:00,29
CDISCPILOT01,LB,01-701-1097,103,ALB,Albumin,CHEMISTRY,4.1,g/dL,3.3,4.9,41,41,g/L,33,49,NORMAL,,7,WEEK 6,42,TREATMENT,2014-02-11T11:16,42
CDISCPILOT01,LB,01-701-1097,133,ALB,Albumin,CHEMISTRY,4.3,g/dL,3.3,4.9,43,43,g/L,33,49,NORMAL,,8,WEEK 8,56,TREATMENT,2014-02-26T11:10,57
CDISCPILOT01,LB,01-701-1097,163,ALB,Albumin,CHEMISTRY,4.1,g/dL,3.3,4.9,41,41,g/L,33,49,NORMAL,,9,WEEK 12,84,TREATMENT,2014-03-26T08:55,85
CDISCPILOT01,LB,01-701-1097,198,ALB,Albumin,CHEMISTRY,4.2,g/dL,3.3,4.9,42,42,g/L,33,49,NORMAL,,10,WEEK 16,112,TREATMENT,2014-04-23T11:14,113
CDISCPILOT01,LB,01-701-1097,228,ALB,Albumin,CHEMISTRY,3.9,g/dL,3.3,4.9,39,39,g/L,33,49,NORMAL,,11,WEEK 20,140,TREATMENT,2014-05-21T15:06,141
CDISCPILOT01,LB,01-701-1097,258,ALB,Albumin,CHEMISTRY,4.3,g/dL,3.3,4.9,43,43,g/L,33,49,NORMAL,,12,WEEK 24,168,TREATMENT,2014-06-18T10:41,169
CDISCPILOT01,LB,01-701-1097,293,ALB,Albumin,CHEMISTRY,4.0,g/dL,3.3,4.9,40,40,g/L,33,49,NORMAL,,13,WEEK 26,182,TREATMENT,2014-07-09T09:39,190
CDISCPILOT01,LB,01-701-1097,2,ALP,Alkaline Phosphatase,CHEMISTRY,56,U/L,35,115,56,56,U/L,35,115,NORMAL,Y,1,SCREENING 1,-7,SCREENING,2013-12-23T12:30,-9
CDISCPILOT01,LB,01-701-1097,39,ALP,Alkaline Phosphatase,CHEMISTRY,54,U/L,35,115,54,54,U/L,35,115,NORMAL,,4,WEEK 2,14,TREATMENT,2014-01-15T10:03,15
CDISCPILOT01,LB,01-701-1097,74,ALP,Alkaline Phosphatase,CHEMISTRY,49,U/L,35,115,49,49,U/L,35,115,NORMAL,,5,WEEK 4,28,TREATMENT,2014-01-29T14:00,29
CDISCPILOT01,LB,01-701-1097,104,ALP,Alkaline Phosphatase,CHEMISTRY,48,U/L,35,115,48,48,U/L,35,115,NORMAL,,7,WEEK 6,42,TREATMENT,2014-02-11T11:16,42
CDISCPILOT01,LB,01-701-1097,134,ALP,Alkaline Phosphatase,CHEMISTRY,49,U/L,35,115,49,49,U/L,35,115,NORMAL,,8,WEEK 8,56,TREATMENT,2014-02-26T11:10,57
CDISCPILOT01,LB,01-701-1097,164,ALP,Alkaline Phosphatase,CHEMISTRY,53,U/L,35,115,53,53,U/L,35,115,NORMAL,,9,WEEK 12,84,TREATMENT,2014-03-26T08:55,85
CDISCPILOT01,LB,01-701-1097,199,ALP,Alkaline Phosphatase,CHEMISTRY,67,U/L,35,115,67,67,U/L,35,115,NORMAL,,10,WEEK 16,112,TREATMENT,2014-04-23T11:14,113
CDISCPILOT01,LB,01-701-1097,229,ALP,Alkaline Phosphatase,CHEMISTRY,50,U/L,35,115,50,50,U/L,35,115,NORMAL,,11,WEEK 20,140,TREATMENT,2014-05-21T15:06,141
CDISCPILOT01,LB,01-701-1097,259,ALP,Alkaline Phosphatase,CHEMISTRY,54,U/L,35,115,54,54,U/L,35,115,NORMAL,,12,WEEK 24,168,TREATMENT,2014-06-18T10:41,169
CDISCPILOT01,LB,01-701-1097,294,ALP,Alkaline Phosphatase,CHEMISTRY,52,U/L,35,115,52,52,U/L,35,115,NORMAL,,13,WEEK 26,182,TREATMENT,2014-07-09T09:39,190
CDISCPILOT01,LB,01-701-1097,3,ALT,Alanine Aminotransferase,CHEMISTRY,16,U/L,6,43,16,16,U/L,6,43,NORMAL,Y,1,SCREENING 1,-7,SCREENING,2013-12-23T12:30,-9
CDISCPILOT01,LB,01-701-1097,40,ALT,Alanine Aminotransferase,CHEMISTRY,24,U/L,6,43,24,24,U/L,6,43,NORMAL,,4,WEEK 2,14,TREATMENT,2014-01-15T10:03,15
CDISCPILOT01,LB,01-701-1097,75,ALT,Alanine Aminotransferase,CHEMISTRY,17,U/L,6,43,17,17,U/L,6,43,NORMAL,,5,WEEK 4,28,TREATMENT,2014-01-29T14:00,29
CDISCPILOT01,LB,01-701-1097,105,ALT,Alanine Aminotransferase,CHEMISTRY,14,U/L,6,43,14,14,U/L,6,43,NORMAL,,7,WEEK 6,42,TREATMENT,2014-02-11T11:16,42
CDISCPILOT01,LB,01-701-1097,135,ALT,Alanine Aminotransferase,CHEMISTRY,18,U/L,6,43,18,18,U/L,6,43,NORMAL,,8,WEEK 8,56,TREATMENT,2014-02-26T11:10,57
CDISCPILOT01,LB,01-701-1097,165,ALT,Alanine Aminotransferase,CHEMISTRY,14,U/L,6,43,14,14,U/L,6,43,NORMAL,,9,WEEK 12,84,TREATMENT,2014-03-26T08:55,85
CDISCPILOT01,LB,01-701-1097,200,ALT,Alanine Aminotransferase,CHEMISTRY,15,U/L,6,43,15,15,U/L,6,43,NORMAL,,10,WEEK 16,112,TREATMENT,2014-04-23T11:14,113
CDISCPILOT01,LB,01-701-1097,230,ALT,Alanine Aminotransferase,CHEMISTRY,11,U/L,6,43,11,11,U/L,6,43,NORMAL,,11,WEEK 20,140,TREATMENT,2014-05-21T15:06,141
CDISCPILOT01,LB,01-701-1097,260,ALT,Alanine Aminotransferase,CHEMISTRY,18,U/L,6,43,18,18,U/L,6,43,NORMAL,,12,WEEK 24,168,TREATMENT,2014-06-18T10:41,169
CDISCPILOT01,LB,01-701-1097,295,ALT,Alanine Aminotransferase,CHEMISTRY,15,U/L,6,43,15,15,U/L,6,43,NORMAL,,13,WEEK 26,182,TREATMENT,2014-07-09T09:39,190
CDISCPILOT01,LB,01-701-1097,4,AST,Aspartate Aminotransferase,CHEMISTRY,19,U/L,11,36,19,19,U/L,11,36,NORMAL,Y,1,SCREENING 1,-7,SCREENING,2013-12-23T12:30,-9
CDISCPILOT01,LB,01-701-1097,41,AST,Aspartate Aminotransferase,CHEMISTRY,21,U/L,11,36,21,21,U/L,11,36,NORMAL,,4,WEEK 2,14,TREATMENT,2014-01-15T10:03,15
CDISCPILOT01,LB,01-701-1097,76,AST,Aspartate Aminotransferase,CHEMISTRY,16,U/L,11,36,16,16,U/L,11,36,NORMAL,,5,WEEK 4,28,TREATMENT,2014-01-29T14:00,29
CDISCPILOT01,LB,01-701-1097,106,AST,Aspartate Aminotransferase,CHEMISTRY,19,U/L,11,36,19,19,U/L,11,36,NORMAL,,7,WEEK 6,42,TREATMENT,2014-02-11T11:16,42
CDISCPILOT01,LB,01-701-1097,136,AST,Aspartate Aminotransferase,CHEMISTRY,18,U/L,11,36,18,18,U/L,11,36,NORMAL,,8,WEEK 8,56,TREATMENT,2014-02-26T11:10,57
CDISCPILOT01,LB,01-701-1097,166,AST,Aspartate Aminotransferase,CHEMISTRY,17,U/L,11,36,17,17,U/L,11,36,NORMAL,,9,WEEK 12,84,TREATMENT,2014-03-26T08:55,85
CDISCPILOT01,LB,01-701-1097,201,AST,Aspartate Aminotransferase,CHEMISTRY,17,U/L,11,36,17,17,U/L,11,36,NORMAL,,10,WEEK 16,112,TREATMENT,2014-04-23T11:14,113
CDISCPILOT01,LB,01-701-1097,231,AST,Aspartate Aminotransferase,CHEMISTRY,16,U/L,11,36,16,16,U/L,11,36,NORMAL,,11,WEEK 20,140,TREATMENT,2014-05-21T15:06,141
CDISCPILOT01,LB,01-701-1097,261,AST,Aspartate Aminotransferase,CHEMISTRY,20,U/L,11,36,20,20,U/L,11,36,NORMAL,,12,WEEK 24,168,TREATMENT,2014-06-18T10:41,169
CDISCPILOT01,LB,01-701-1097,296,AST,Aspartate Aminotransferase,CHEMISTRY,19,U/L,11,36,19,19,U/L,11,36,NORMAL,,13,WEEK 26,182,TREATMENT,2014-07-09T09:39,190
CDISCPILOT01,LB,01-701-1097,6,BILI,Bilirubin,CHEMISTRY,0.4,mg/dL,0.2,1.2,6.84,6.84,umol/L,3,21,NORMAL,Y,1,SCREENING 1,-7,SCREENING,2013-12-23T12:30,-9
CDISCPILOT01,LB,01-701-1097,43,BILI,Bilirubin,CHEMISTRY,0.5,mg/dL,0.2,1.2,8.55,8.55,umol/L,3,21,NORMAL,,4,WEEK 2,14,TREATMENT,2014-01-15T10:03,15
CDISCPILOT01,LB,01-701-1097,78,BILI,Bilirubin,CHEMISTRY,0.6,mg/dL,0.2,1.2,10.26,10.26,umol/L,3,21,NORMAL,,5,WEEK 4,28,TREATMENT,2014-01-29T14:00,29
CDISCPILOT01,LB,01-701-1097,108,BILI,Bilirubin,CHEMISTRY,0.5,mg/dL,0.2,1.2,8.55,8.55,umol/L,3,21,NORMAL,,7,WEEK 6,42,TREATMENT,2014-02-11T11:16,42
CDISCPILOT01,LB,01-701-1097,138,BILI,Bilirubin,CHEMISTRY,0.5,mg/dL,0.2,1.2,8.55,8.55,umol/L,3,21,NORMAL,,8,WEEK 8,56,TREATMENT,2014-02-26T11:10,57
CDISCPILOT01,LB,01-701-1097,168,BILI,Bilirubin,CHEMISTRY,0.4,mg/dL,0.2,1.2,6.84,6.84,umol/L,3,21,NORMAL,,9,WEEK 12,84,TREATMENT,2014-03-26T08:55,85
CDISCPILOT01,LB,01-701-1097,203,BILI,Bilirubin,CHEMISTRY,0.4,mg/dL,0.2,1.2,6.84,6.84,umol/L,3,21,NORMAL,,10,WEEK 16,112,TREATMENT,2014-04-23T11:14,113
CDISCPILOT01,LB,01-701-1097,233,BILI,Bilirubin,CHEMISTRY,0.3,mg/dL,0.2,1.2,5.13,5.13,umol/L,3,21,NORMAL,,11,WEEK 20,140,TREATMENT,2014-05-21T15:06,141
CDISCPILOT01,LB,01-701-1097,263,BILI,Bilirubin,CHEMISTRY,0.6,mg/dL,0.2,1.2,10.26,10.26,umol/L,3,21,NORMAL,,12,WEEK 24,168,TREATMENT,2014-06-18T10:41,169
CDISCPILOT01,LB,01-701-1097,298,BILI,Bilirubin,CHEMISTRY,0.5,mg/dL,0.2,1.2,8.55,8.55,umol/L,3,21,NORMAL,,13,WEEK 26,182,TREATMENT,2014-07-09T09:39,190
CDISCPILOT01,LB,01-701-1097,7,UREAN,Urea Nitrogen,CHEMISTRY,21,mg/dL,4,24,7.497,7.497,mmol/L,1.4,8.6,NORMAL,Y,1,SCREENING 1,-7,SCREENING,2013-12-23T12:30,-9
CDISCPILOT01,LB,01-701-1097,44,UREAN,Urea Nitrogen,CHEMISTRY,24,mg/dL,4,24,8.568,8.568,mmol/L,1.4,8.6,NORMAL,,4,WEEK 2,14,TREATMENT,2014-01-15T10:03,15
CDISCPILOT01,LB,01-701-1097,79,UREAN,Urea Nitrogen,CHEMISTRY,23,mg/dL,4,24,8.211,8.211,mmol/L,1.4,8.6,NORMAL,,5,WEEK 4,28,TREATMENT,2014-01-29T14:00,29
CDISCPILOT01,LB,01-701-1097,109,UREAN,Urea Nitrogen,CHEMISTRY,21,mg/dL,4,24,7.497,7.497,mmol/L,1.4,8.6,NORMAL,,7,WEEK 6,42,TREATMENT,2014-02-11T11:16,42
CDISCPILOT01,LB,01-701-1097,139,UREAN,Urea Nitrogen,CHEMISTRY,21,mg/dL,4,24,7.497,7.497,mmol/L,1.4,8.6,NORMAL,,8,WEEK 8,56,TREATMENT,2014-02-26T11:10,57
CDISCPILOT01,LB,01-701-1097,169,UREAN,Urea Nitrogen,CHEMISTRY,22,mg/dL,4,24,7.854,7.854,mmol/L,1.4,8.6,NORMAL,,9,WEEK 12,84,TREATMENT,2014-03-26T08:55,85
CDISCPILOT01,LB,01-701-1097,204,UREAN,Urea Nitrogen,CHEMISTRY,21,mg/dL,4,24,7.497,7.497,mmol/L,1.4,8.6,NORMAL,,10,WEEK 16,112,TREATMENT,2014-04-23T11:14,113
CDISCPILOT01,LB,01-701-1097,234,UREAN,Urea Nitrogen,CHEMISTRY,19,mg/dL,4,24,6.783,6.783,mmol/L,1.4,8.6,NORMAL,,11,WEEK 20,140,TREATMENT,2014-05-21T15:06,141
CDISCPILOT01,LB,01-701-1097,264,UREAN,Urea Nitrogen,CHEMISTRY,18,mg/dL,4,24,6.426,6.426,mmol/L,1.4,8.6,NORMAL,,12,WEEK 24,168,TREATMENT,2014-06-18T10:41,169
CDISCPILOT01,LB,01-701-1097,299,UREAN,Urea Nitrogen,CHEMISTRY,19,mg/dL,4,24,6.783,6.783,mmol/L,1.4,8.6,NORMAL,,13,WEEK 26,182,TREATMENT,2014-07-09T09:39,190
CDISCPILOT01,LB,01-701-1097,8,CA,Calcium,CHEMISTRY,9.3,mg/dL,8.4,10.3,2.32035,2.32035,mmol/L,2.1,2.57,NORMAL,Y,1,SCREENING 1,-7,SCREENING,2013-12-23T12:30,-9
CDISCPILOT01,LB,01-701-1097,45,CA,Calcium,CHEMISTRY,9.4,mg/dL,8.4,10.3,2.3453,2.3453,mmol/L,2.1,2.57,NORMAL,,4,WEEK 2,14,TREATMENT,2014-01-15T10:03,15
CDISCPILOT01,LB,01-701-1097,80,CA,Calcium,CHEMISTRY,9.1,mg/dL,8.4,10.3,2.27045,2.27045,mmol/L,2.1,2.57,NORMAL,,5,WEEK 4,28,TREATMENT,2014-01-29T14:00,29
CDISCPILOT01,LB,01-701-1097,110,CA,Calcium,CHEMISTRY,8.9,mg/dL,8.4,10.3,2.22055,2.22055,mmol/L,2.1,2.57,NORMAL,,7,WEEK 6,42,TREATMENT,2014-02-11T11:16,42
CDISCPILOT01,LB,01-701-1097,140,CA,Calcium,CHEMISTRY,9.4,mg/dL,8.4,10.3,2.3453,2.3453,mmol/L,2.1,2.57,NORMAL,,8,WEEK 8,56,TREATMENT,2014-02-26T11:10,57
CDISCPILOT01,LB,01-701-1097,170,CA,Calcium,CHEMISTRY,9.1,mg/dL,8.4,10.3,2.27045,2.27045,mmol/L,2.1,2.57,NORMAL,,9,WEEK 12,84,TREATMENT,2014-03-26T08:55,85
CDISCPILOT01,LB,01-701-1097,205,CA,Calcium,CHEMISTRY,9.0,mg/dL,8.4,10.3,2.2455,2.2455,mmol/L,2.1,2.57,NORMAL,,10,WEEK 16,112,TREATMENT,2014-04-23T11:14,113
CDISCPILOT01,LB,01-701-1097,235,CA,Calcium,CHEMISTRY,8.7,mg/dL,8.4,10.3,2.17065,2.17065,mmol/L,2.1,2.57,NORMAL,,11,WEEK 20,140,TREATMENT,2014-05-21T15:06,141
CDISCPILOT01,LB,01-701-1097,265,CA,Calcium,CHEMISTRY,8.8,mg/dL,8.4,10.3,2.1956,2.1956,mmol/L,2.1,2.57,NORMAL,,12,WEEK 24,168,TREATMENT,2014-06-18T10:41,169
CDISCPILOT01,LB,01-701-1097,300,CA,Calcium,CHEMISTRY,9.3,mg/dL,8.4,10.3,2.32035,2.32035,mmol/L,2.1,2.57,NORMAL,,13,WEEK 26,182,TREATMENT,2014-07-09T09:39,190
CDISCPILOT01,LB,01-701-1097,9,CHOL,Cholesterol,CHEMISTRY,241,mg/dL,149,286,6.23226,6.23226,mmol/L,3.85,7.4,NORMAL,Y,1,SCREENING 1,-7,SCREENING,2013-12-23T12:30,-9
CDISCPILOT01,LB,01-701-1097,46,CHOL,Cholesterol,CHEMISTRY,237,mg/dL,149,286,6.12882,6.12882,mmol/L,3.85,7.4,NORMAL,,4,WEEK 2,14,TREATMENT,2014-01-15T10:03,15
CDISCPILOT01,LB,01-701-1097,81,CHOL,Cholesterol,CHEMISTRY,223,mg/dL,149,286,5.76678,5.76678,mmol/L,3.85,7.4,NORMAL,,5,WEEK 4,28,TREATMENT,2014-01-29T14:00,29
CDISCPILOT01,LB,01-701-1097,111,CHOL,Cholesterol,CHEMISTRY,215,mg/dL,149,286,5.5599,5.5599,mmol/L,3.85,7.4,NORMAL,,7,WEEK 6,42,TREATMENT,2014-02-11T11:16,42
CDISCPILOT01,LB,01-701-1097,141,CHOL,Cholesterol,CHEMISTRY,238,mg/dL,149,286,6.15468,6.15468,mmol/L,3.85,7.4,NORMAL,,8,WEEK 8,56,TREATMENT,2014-02-26T11:10,57
CDISCPILOT01,LB,01-701-1097,171,CHOL,Cholesterol,CHEMISTRY,219,mg/dL,149,286,5.66334,5.66334,mmol/L,3.85,7.4,NORMAL,,9,WEEK 12,84,TREATMENT,2014-03-26T08:55,85
CDISCPILOT01,LB,01-701-1097,206,CHOL,Cholesterol,CHEMISTRY,221,mg/dL,149,286,5.71506,5.71506,mmol/L,3.85,7.4,NORMAL,,10,WEEK 16,112,TREATMENT,2014-04-23T11:14,113
CDISCPILOT01,LB,01-701-1097,236,CHOL,Cholesterol,CHEMISTRY,208,mg/dL,149,286,5.37888,5.37888,mmol/L,3.85,7.4,NORMAL,,11,WEEK 20,140,TREATMENT,2014-05-21T15:06,141
CDISCPILOT01,LB,01-701-1097,266,CHOL,Cholesterol,CHEMISTRY,226,mg/dL,149,286,5.84436,5.84436,mmol/L,3.85,7.4,NORMAL,,12,WEEK 24,168,TREATMENT,2014-06-18T10:41,169
CDISCPILOT01,LB,01-701-1097,301,CHOL,Cholesterol,CHEMISTRY,205,mg/dL,149,286,5.3013,5.3013,mmol/L,3.85,7.4,NORMAL,,13,WEEK 26,182,TREATMENT,2014-07-09T09:39,190
CDISCPILOT01,LB,01-701-1097,10,CK,Creatine Kinase,CHEMISTRY,96,U/L,22,198,96,96,U/L,22,198,NORMAL,Y,1,SCREENING 1,-7,SCREENING,2013-12-23T12:30,-9
CDISCPILOT01,LB,01-701-1097,47,CK,Creatine Kinase,CHEMISTRY,84,U/L,22,198,84,84,U/L,22,198,NORMAL,,4,WEEK 2,14,TREATMENT,2014-01-15T10:03,15
CDISCPILOT01,LB,01-701-1097,82,CK,Creatine Kinase,CHEMISTRY,86,U/L,22,198,86,86,U/L,22,198,NORMAL,,5,WEEK 4,28,TREATMENT,2014-01-29T14:00,29
CDISCPILOT01,LB,01-701-1097,112,CK,Creatine Kinase,CHEMISTRY,126,U/L,22,198,126,126,U/L,22,198,NORMAL,,7,WEEK 6,42,TREATMENT,2014-02-11T11:16,42
CDISCPILOT01,LB,01-701-1097,142,CK,Creatine Kinase,CHEMISTRY,88,U/L,22,198,88,88,U/L,22,198,NORMAL,,8,WEEK 8,56,TREATMENT,2014-02-26T11:10,57
CDISCPILOT01,LB,01-701-1097,172,CK,Creatine Kinase,CHEMISTRY,63,U/L,22,198,63,63,U/L,22,198,NORMAL,,9,WEEK 12,84,TREATMENT,2014-03-26T08:55,85
CDISCPILOT01,LB,01-701-1097,207,CK,Creatine Kinase,CHEMISTRY,77,U/L,22,198,77,77,U/L,22,198,NORMAL,,10,WEEK 16,112,TREATMENT,2014-04-23T11:14,113
CDISCPILOT01,LB,01-701-1097,237,CK,Creatine Kinase,CHEMISTRY,82,U/L,22,198,82,82,U/L,22,198,NORMAL,,11,WEEK 20,140,TREATMENT,2014-05-21T15:06,141
CDISCPILOT01,LB,01-701-1097,267,CK,Creatine Kinase,CHEMISTRY,98,U/L,22,198,98,98,U/L,22,198,NORMAL,,12,WEEK 24,168,TREATMENT,2014-06-18T10:41,169
CDISCPILOT01,LB,01-701-1097,302,CK,Creatine Kinase,CHEMISTRY,86,U/L,22,198,86,86,U/L,22,198,NORMAL,,13,WEEK 26,182,TREATMENT,2014-07-09T09:39,190
CDISCPILOT01,LB,01-701-1097,11,CL,Chloride,CHEMISTRY,103,mEq/L,94,112,103,103,mmol/L,94,112,NORMAL,Y,1,SCREENING 1,-7,SCREENING,2013-12-23T12:30,-9
CDISCPILOT01,LB,01-701-1097,48,CL,Chloride,CHEMISTRY,104,mEq/L,94,112,104,104,mmol/L,94,112,NORMAL,,4,WEEK 2,14,TREATMENT,2014-01-15T10:03,15
CDISCPILOT01,LB,01-701-1097,83,CL,Chloride,CHEMISTRY,103,mEq/L,94,112,103,103,mmol/L,94,112,NORMAL,,5,WEEK 4,28,TREATMENT,2014-01-29T14:00,29
CDISCPILOT01,LB,01-701-1097,113,CL,Chloride,CHEMISTRY,106,mEq/L,94,112,106,106,mmol/L,94,112,NORMAL,,7,WEEK 6,42,TREATMENT,2014-02-11T11:16,42
CDISCPILOT01,LB,01-701-1097,143,CL,Chloride,CHEMISTRY,100,mEq/L,94,112,100,100,mmol/L,94,112,NORMAL,,8,WEEK 8,56,TREATMENT,2014-02-26T11:10,57
CDISCPILOT01,LB,01-701-1097,173,CL,Chloride,CHEMISTRY,102,mEq/L,94,112,102,102,mmol/L,94,112,NORMAL,,9,WEEK 12,84,TREATMENT,2014-03-26T08:55,85
CDISCPILOT01,LB,01-701-1097,208,CL,Chloride,CHEMISTRY,103,mEq/L,94,112,103,103,mmol/L,94,112,NORMAL,,10,WEEK 16,112,TREATMENT,2014-04-23T11:14,113
CDISCPILOT01,LB,01-701-1097,238,CL,Chloride,CHEMISTRY,108,mEq/L,94,112,108,108,mmol/L,94,112,NORMAL,,11,WEEK 20,140,TREATMENT,2014-05-21T15:06,141
CDISCPILOT01,LB,01-701-1097,268,CL,Chloride,CHEMISTRY,103,mEq/L,94,112,103,103,mmol/L,94,112,NORMAL,,12,WEEK 24,168,TREATMENT,2014-06-18T10:41,169
CDISCPILOT01,LB,01-701-1097,303,CL,Chloride,CHEMISTRY,108,mEq/L,94,112,108,108,mmol/L,94,112,NORMAL,,13,WEEK 26,182,TREATMENT,2014-07-09T09:39,190
CDISCPILOT01,LB,01-701-1097,13,CREAT,Creatinine,CHEMISTRY,1.4,mg/dL,0.8,1.6,123.76,123.76,umol/L,71,141,NORMAL,Y,1,SCREENING 1,-7,SCREENING,2013-12-23T12:30,-9
CDISCPILOT01,LB,01-701-1097,50,CREAT,Creatinine,CHEMISTRY,1.5,mg/dL,0.8,1.6,132.6,132.6,umol/L,71,141,NORMAL,,4,WEEK 2,14,TREATMENT,2014-01-15T10:03,15
CDISCPILOT01,LB,01-701-1097,84,CREAT,Creatinine,CHEMISTRY,1.5,mg/dL,0.8,1.6,132.6,132.6,umol/L,71,141,NORMAL,,5,WEEK 4,28,TREATMENT,2014-01-29T14:00,29
CDISCPILOT01,LB,01-701-1097,114,CREAT,Creatinine,CHEMISTRY,1.5,mg/dL,0.8,1.6,132.6,132.6,umol/L,71,141,NORMAL,,7,WEEK 6,42,TREATMENT,2014-02-11T11:16,42
CDISCPILOT01,LB,01-701-1097,144,CREAT,Creatinine,CHEMISTRY,1.5,mg/dL,0.8,1.6,132.6,132.6,umol/L,71,141,NORMAL,,8,WEEK 8,56,TREATMENT,2014-02-26T11:10,57
CDISCPILOT01,LB,01-701-1097,175,CREAT,Creatinine,CHEMISTRY,1.5,mg/dL,0.8,1.6,132.6,132.6,umol/L,71,141,NORMAL,,9,WEEK 12,84,TREATMENT,2014-03-26T08:55,85
CDISCPILOT01,LB,01-701-1097,209,CREAT,Creatinine,CHEMISTRY,1.5,mg/dL,0.8,1.6,132.6,132.6,umol/L,71,141,NORMAL,,10,WEEK 16,112,TREATMENT,2014-04-23T11:14,113
CDISCPILOT01,LB,01-701-1097,239,CREAT,Creatinine,CHEMISTRY,1.5,mg/dL,0.8,1.6,132.6,132.6,umol/L,71,141,NORMAL,,11,WEEK 20,140,TREATMENT,2014-05-21T15:06,141
CDISCPILOT01,LB,01-701-1097,270,CREAT,Creatinine,CHEMISTRY,1.4,mg/dL,0.8,1.6,123.76,123.76,umol/L,71,141,NORMAL,,12,WEEK 24,168,TREATMENT,2014-06-18T10:41,169
CDISCPILOT01,LB,01-701-1097,305,CREAT,Creatinine,CHEMISTRY,1.6,mg/dL,0.8,1.6,141.44,141.44,umol/L,71,141,NORMAL,,13,WEEK 26,182,TREATMENT,2014-07-09T09:39,190
CDISCPILOT01,LB,01-701-1097,15,GGT,Gamma Glutamyl Transferase,CHEMISTRY,18,U/L,10,50,18,18,U/L,10,50,NORMAL,Y,1,SCREENING 1,-7,SCREENING,2013-12-23T12:30,-9
CDISCPILOT01,LB,01-701-1097,52,GGT,Gamma Glutamyl Transferase,CHEMISTRY,21,U/L,10,50,21,21,U/L,10,50,NORMAL,,4,WEEK 2,14,TREATMENT,2014-01-15T10:03,15
CDISCPILOT01,LB,01-701-1097,86,GGT,Gamma Glutamyl Transferase,CHEMISTRY,18,U/L,10,50,18,18,U/L,10,50,NORMAL,,5,WEEK 4,28,TREATMENT,2014-01-29T14:00,29
CDISCPILOT01,LB,01-701-1097,116,GGT,Gamma Glutamyl Transferase,CHEMISTRY,16,U/L,10,50,16,16,U/L,10,50,NORMAL,,7,WEEK 6,42,TREATMENT,2014-02-11T11:16,42
CDISCPILOT01,LB,01-701-1097,146,GGT,Gamma Glutamyl Transferase,CHEMISTRY,19,U/L,10,50,19,19,U/L,10,50,NORMAL,,8,WEEK 8,56,TREATMENT,2014-02-26T11:10,57
CDISCPILOT01,LB,01-701-1097,177,GGT,Gamma Glutamyl Transferase,CHEMISTRY,19,U/L,10,50,19,19,U/L,10,50,NORMAL,,9,WEEK 12,84,TREATMENT,2014-03-26T08:55,85
CDISCPILOT01,LB,01-701-1097,211,GGT,Gamma Glutamyl Transferase,CHEMISTRY,20,U/L,10,50,20,20,U/L,10,50,NORMAL,,10,WEEK 16,112,TREATMENT,2014-04-23T11:14,113
CDISCPILOT01,LB,01-701-1097,241,GGT,Gamma Glutamyl Transferase,CHEMISTRY,16,U/L,10,50,16,16,U/L,10,50,NORMAL,,11,WEEK 20,140,TREATMENT,2014-05-21T15:06,141
CDISCPILOT01,LB,01-701-1097,272,GGT,Gamma Glutamyl Transferase,CHEMISTRY,20,U/L,10,50,20,20,U/L,10,50,NORMAL,,12,WEEK 24,168,TREATMENT,2014-06-18T10:41,169
CDISCPILOT01,LB,01-701-1097,307,GGT,Gamma Glutamyl Transferase,CHEMISTRY,16,U/L,10,50,16,16,U/L,10,50,NORMAL,,13,WEEK 26,182,TREATMENT,2014-07-09T09:39,190
CDISCPILOT01,LB,01-701-1097,16,GLUC,Glucose,CHEMISTRY,93,mg/dL,50,250,5.16243,5.16243,mmol/L,2.8,13.9,NORMAL,Y,1,SCREENING 1,-7,SCREENING,2013-12-23T12:30,-9
CDISCPILOT01,LB,01-701-1097,53,GLUC,Glucose,CHEMISTRY,90,mg/dL,50,250,4.9959,4.9959,mmol/L,2.8,13.9,NORMAL,,4,WEEK 2,14,TREATMENT,2014-01-15T10:03,15
CDISCPILOT01,LB,01-701-1097,87,GLUC,Glucose,CHEMISTRY,97,mg/dL,50,250,5.38447,5.38447,mmol/L,2.8,13.9,NORMAL,,5,WEEK 4,28,TREATMENT,2014-01-29T14:00,29
CDISCPILOT01,LB,01-701-1097,117,GLUC,Glucose,CHEMISTRY,67,mg/dL,50,250,3.71917,3.71917,mmol/L,2.8,13.9,NORMAL,,7,WEEK 6,42,TREATMENT,2014-02-11T11:16,42
CDISCPILOT01,LB,01-701-1097,147,GLUC,Glucose,CHEMISTRY,89,mg/dL,50,250,4.94039,4.94039,mmol/L,2.8,13.9,NORMAL,,8,WEEK 8,56,TREATMENT,2014-02-26T11:10,57
CDISCPILOT01,LB,01-701-1097,178,GLUC,Glucose,CHEMISTRY,107,mg/dL,50,250,5.93957,5.93957,mmol/L,2.8,13.9,NORMAL,,9,WEEK 12,84,TREATMENT,2014-03-26T08:55,85
CDISCPILOT01,LB,01-701-1097,212,GLUC,Glucose,CHEMISTRY,90,mg/dL,50,250,4.9959,4.9959,mmol/L,2.8,13.9,NORMAL,,10,WEEK 16,112,TREATMENT,2014-04-23T11:14,113
CDISCPILOT01,LB,01-701-1097,242,GLUC,Glucose,CHEMISTRY,78,mg/dL,50,250,4.32978,4.32978,mmol/L,2.8,13.9,NORMAL,,11,WEEK 20,140,TREATMENT,2014-05-21T15:06,141
CDISCPILOT01,LB,01-701-1097,273,GLUC,Glucose,CHEMISTRY,96,mg/dL,50,250,5.32896,5.32896,mmol/L,2.8,13.9,NORMAL,,12,WEEK 24,168,TREATMENT,2014-06-18T10:41,169
CDISCPILOT01,LB,01-701-1097,308,GLUC,Glucose,CHEMISTRY,89,mg/dL,50,250,4.94039,4.94039,mmol/L,2.8,13.9,NORMAL,,13,WEEK 26,182,TREATMENT,2014-07-09T09:39,190
CDISCPILOT01,LB,01-701-1097,19,K,Potassium,CHEMISTRY,4.6,mEq/L,3.4,5.4,4.6,4.6,mmol/L,3.4,5.4,NORMAL,Y,1,SCREENING 1,-7,SCREENING,2013-12-23T12:30,-9
CDISCPILOT01,LB,01-701-1097,56,K,Potassium,CHEMISTRY,4.8,mEq/L,3.4,5.4,4.8,4.8,mmol/L,3.4,5.4,NORMAL,,4,WEEK 2,14,TREATMENT,2014-01-15T10:03,15
CDISCPILOT01,LB,01-701-1097,90,K,Potassium,CHEMISTRY,4.8,mEq/L,3.4,5.4,4.8,4.8,mmol/L,3.4,5.4,NORMAL,,5,WEEK 4,28,TREATMENT,2014-01-29T14:00,29
CDISCPILOT01,LB,01-701-1097,120,K,Potassium,CHEMISTRY,4.6,mEq/L,3.4,5.4,4.6,4.6,mmol/L,3.4,5.4,NORMAL,,7,WEEK 6,42,TREATMENT,2014-02-11T11:16,42
CDISCPILOT01,LB,01-701-1097,150,K,Potassium,CHEMISTRY,5.0,mEq/L,3.4,5.4,5,5,mmol/L,3.4,5.4,NORMAL,,8,WEEK 8,56,TREATMENT,2014-02-26T11:10,57
CDISCPILOT01,LB,01-701-1097,181,K,Potassium,CHEMISTRY,4.2,mEq/L,3.4,5.4,4.2,4.2,mmol/L,3.4,5.4,NORMAL,,9,WEEK 12,84,TREATMENT,2014-03-26T08:55,85
CDISCPILOT01,LB,01-701-1097,215,K,Potassium,CHEMISTRY,4.7,mEq/L,3.4,5.4,4.7,4.7,mmol/L,3.4,5.4,NORMAL,,10,WEEK 16,112,TREATMENT,2014-04-23T11:14,113
CDISCPILOT01,LB,01-701-1097,245,K,Potassium,CHEMISTRY,4.2,mEq/L,3.4,5.4,4.2,4.2,mmol/L,3.4,5.4,NORMAL,,11,WEEK 20,140,TREATMENT,2014-05-21T15:06,141
CDISCPILOT01,LB,01-701-1097,276,K,Potassium,CHEMISTRY,4.1,mEq/L,3.4,5.4,4.1,4.1,mmol/L,3.4,5.4,NORMAL,,12,WEEK 24,168,TREATMENT,2014-06-18T10:41,169
CDISCPILOT01,LB,01-701-1097,311,K,Potassium,CHEMISTRY,5.0,mEq/L,3.4,5.4,5,5,mmol/L,3.4,5.4,NORMAL,,13,WEEK 26,182,TREATMENT,2014-07-09T09:39,190
CDISCPILOT01,LB,01-701-1097,26,SODIUM,Sodium,CHEMISTRY,134,mEq/L,135,145,134,134,mmol/L,135,145,LOW,Y,1,SCREENING 1,-7,SCREENING,2013-12-23T12:30,-9
CDISCPILOT01,LB,01-701-1097,63,SODIUM,Sodium,CHEMISTRY,139,mEq/L,135,145,139,139,mmol/L,135,145,NORMAL,,4,WEEK 2,14,TREATMENT,2014-01-15T10:03,15
CDISCPILOT01,LB,01-701-1097,96,SODIUM,Sodium,CHEMISTRY,138,mEq/L,135,145,138,138,mmol/L,135,145,NORMAL,,5,WEEK 4,28,TREATMENT,2014-01-29T14:00,29
CDISCPILOT01,LB,01-701-1097,126,SODIUM,Sodium,CHEMISTRY,141,mEq/L,135,145,141,141,mmol/L,135,145,NORMAL,,7,WEEK 6,42,TREATMENT,2014-02-11T11:16,42
CDISCPILOT01,LB,01-701-1097,156,SODIUM,Sodium,CHEMISTRY,136,mEq/L,135,145,136,136,mmol/L,135,145,NORMAL,,8,WEEK 8,56,TREATMENT,2014-02-26T11:10,57
CDISCPILOT01,LB,01-701-1097,188,SODIUM,Sodium,CHEMISTRY,139,mEq/L,135,145,139,139,mmol/L,135,145,NORMAL,,9,WEEK 12,84,TREATMENT,2014-03-26T08:55,85
CDISCPILOT01,LB,01-701-1097,221,SODIUM,Sodium,CHEMISTRY,139,mEq/L,135,145,139,139,mmol/L,135,145,NORMAL,,10,WEEK 16,112,TREATMENT,2014-04-23T11:14,113
CDISCPILOT01,LB,01-701-1097,251,SODIUM,Sodium,CHEMISTRY,137,mEq/L,135,145,137,137,mmol/L,135,145,NORMAL,,11,WEEK 20,140,TREATMENT,2014-05-21T15:06,141
CDISCPILOT01,LB,01-701-1097,283,SODIUM,Sodium,CHEMISTRY,136,mEq/L,135,145,136,136,mmol/L,135,145,NORMAL,,12,WEEK 24,168,TREATMENT,2014-06-18T10:41,169
CDISCPILOT01,LB,01-701-1097,318,SODIUM,Sodium,CHEMISTRY,141,mEq/L,135,145,141,141,mmol/L,135,145,NORMAL,,13,WEEK 26,182,TREATMENT,2014-07-09T09:39,190
CDISCPILOT01,LB,01-701-1097,28,PHOS,Phosphate,CHEMISTRY,3.2,mg/dL,2.2,5.1,1.03328,1.03328,mmol/L,0.71,1.65,NORMAL,Y,1,SCREENING 1,-7,SCREENING,2013-12-23T12:30,-9
CDISCPILOT01,LB,01-701-1097,65,PHOS,Phosphate,CHEMISTRY,3.5,mg/dL,2.2,5.1,1.13015,1.13015,mmol/L,0.71,1.65,NORMAL,,4,WEEK 2,14,TREATMENT,2014-01-15T10:03,15
CDISCPILOT01,LB,01-701-1097,97,PHOS,Phosphate,CHEMISTRY,3.4,mg/dL,2.2,5.1,1.09786,1.09786,mmol/L,0.71,1.65,NORMAL,,5,WEEK 4,28,TREATMENT,2014-01-29T14:00,29
CDISCPILOT01,LB,01-701-1097,127,PHOS,Phosphate,CHEMISTRY,3.3,mg/dL,2.2,5.1,1.06557,1.06557,mmol/L,0.71,1.65,NORMAL,,7,WEEK 6,42,TREATMENT,2014-02-11T11:16,42
CDISCPILOT01,LB,01-701-1097,157,PHOS,Phosphate,CHEMISTRY,3.4,mg/dL,2.2,5.1,1.09786,1.09786,mmol/L,0.71,1.65,NORMAL,,8,WEEK 8,56,TREATMENT,2014-02-26T11:10,57
CDISCPILOT01,LB,01-701-1097,190,PHOS,Phosphate,CHEMISTRY,2.4,mg/dL,2.2,5.1,0.77496,0.77496,mmol/L,0.71,1.65,NORMAL,,9,WEEK 12,84,TREATMENT,2014-03-26T08:55,85
CDISCPILOT01,LB,01-701-1097,222,PHOS,Phosphate,CHEMISTRY,3.4,mg/dL,2.2,5.1,1.09786,1.09786,mmol/L,0.71,1.65,NORMAL,,10,WEEK 16,112,TREATMENT,2014-04-23T11:14,113
CDISCPILOT01,LB,01-701-1097,252,PHOS,Phosphate,CHEMISTRY,3.7,mg/dL,2.2,5.1,1.19473,1.19473,mmol/L,0.71,1.65,NORMAL,,11,WEEK 20,140,TREATMENT,2014-05-21T15:06,141
CDISCPILOT01,LB,01-701-1097,285,PHOS,Phosphate,CHEMISTRY,3.2,mg/dL,2.2,5.1,1.03328,1.03328,mmol/L,0.71,1.65,NORMAL,,12,WEEK 24,168,TREATMENT,2014-06-18T10:41,169
CDISCPILOT01,LB,01-701-1097,320,PHOS,Phosphate,CHEMISTRY,2.9,mg/dL,2.2,5.1,0.93641,0.93641,mmol/L,0.71,1.65,NORMAL,,13,WEEK 26,182,TREATMENT,2014-07-09T09:39,190
CDISCPILOT01,LB,01-701-1097,30,PROT,Protein,CHEMISTRY,7.2,g/dL,6,8,72,72,g/L,60,80,NORMAL,Y,1,SCREENING 1,-7,SCREENING,2013-12-23T12:30,-9
CDISCPILOT01,LB,01-701-1097,67,PROT,Protein,CHEMISTRY,7.2,g/dL,6,8,72,72,g/L,60,80,NORMAL,,4,WEEK 2,14,TREATMENT,2014-01-15T10:03,15
CDISCPILOT01,LB,01-701-1097,99,PROT,Protein,CHEMISTRY,6.9,g/dL,6,8,69,69,g/L,60,80,NORMAL,,5,WEEK 4,28,TREATMENT,2014-01-29T14:00,29
CDISCPILOT01,LB,01-701-1097,129,PROT,Protein,CHEMISTRY,6.7,g/dL,6,8,67,67,g/L,60,80,NORMAL,,7,WEEK 6,42,TREATMENT,2014-02-11T11:16,42
CDISCPILOT01,LB,01-701-1097,159,PROT,Protein,CHEMISTRY,6.9,g/dL,6,8,69,69,g/L,60,80,NORMAL,,8,WEEK 8,56,TREATMENT,2014-02-26T11:10,57
CDISCPILOT01,LB,01-701-1097,192,PROT,Protein,CHEMISTRY,6.8,g/dL,6,8,68,68,g/L,60,80,NORMAL,,9,WEEK 12,84,TREATMENT,2014-03-26T08:55,85
CDISCPILOT01,LB,01-701-1097,224,PROT,Protein,CHEMISTRY,7.5,g/dL,6,8,75,75,g/L,60,80,NORMAL,,10,WEEK 16,112,TREATMENT,2014-04-23T11:14,113
CDISCPILOT01,LB,01-701-1097,254,PROT,Protein,CHEMISTRY,6.4,g/dL,6,8,64,64,g/L,60,80,NORMAL,,11,WEEK 20,140,TREATMENT,2014-05-21T15:06,141
CDISCPILOT01,LB,01-701-1097,287,PROT,Protein,CHEMISTRY,7.1,g/dL,6,8,71,71,g/L,60,80,NORMAL,,12,WEEK 24,168,TREATMENT,2014-06-18T10:41,169
CDISCPILOT01,LB,01-701-1097,322,PROT,Protein,CHEMISTRY,6.8,g/dL,6,8,68,68,g/L,60,80,NORMAL,,13,WEEK 26,182,TREATMENT,2014-07-09T09:39,190
CDISCPILOT01,LB,01-701-1097,34,URATE,Urate,CHEMISTRY,4.7,mg/dL,2.5,7.5,279.556,279.556,umol/L,149,446,NORMAL,Y,1,SCREENING 1,-7,SCREENING,2013-12-23T12:30,-9
CDISCPILOT01,LB,01-701-1097,70,URATE,Urate,CHEMISTRY,5.3,mg/dL,2.5,7.5,315.244,315.244,umol/L,149,446,NORMAL,,4,WEEK 2,14,TREATMENT,2014-01-15T10:03,15
CDISCPILOT01,LB,01-701-1097,101,URATE,Urate,CHEMISTRY,4.8,mg/dL,2.5,7.5,285.504,285.504,umol/L,149,446,NORMAL,,5,WEEK 4,28,TREATMENT,2014-01-29T14:00,29
CDISCPILOT01,LB,01-701-1097,131,URATE,Urate,CHEMISTRY,4.5,mg/dL,2.5,7.5,267.66,267.66,umol/L,149,446,NORMAL,,7,WEEK 6,42,TREATMENT,2014-02-11T11:16,42
CDISCPILOT01,LB,01-701-1097,161,URATE,Urate,CHEMISTRY,5.1,mg/dL,2.5,7.5,303.348,303.348,umol/L,149,446,NORMAL,,8,WEEK 8,56,TREATMENT,2014-02-26T11:10,57
CDISCPILOT01,LB,01-701-1097,195,URATE,Urate,CHEMISTRY,5.1,mg/dL,2.5,7.5,303.348,303.348,umol/L,149,446,NORMAL,,9,WEEK 12,84,TREATMENT,2014-03-26T08:55,85
CDISCPILOT01,LB,01-701-1097,226,URATE,Urate,CHEMISTRY,4.1,mg/dL,2.5,7.5,243.868,243.868,umol/L,149,446,NORMAL,,10,WEEK 16,112,TREATMENT,2014-04-23T11:14,113
CDISCPILOT01,LB,01-701-1097,256,URATE,Urate,CHEMISTRY,4.4,mg/dL,2.5,7.5,261.712,261.712,umol/L,149,446,NORMAL,,11,WEEK 20,140,TREATMENT,2014-05-21T15:06,141
CDISCPILOT01,LB,01-701-1097,290,URATE,Urate,CHEMISTRY,4.6,mg/dL,2.5,7.5,273.608,273.608,umol/L,149,446,NORMAL,,12,WEEK 24,168,TREATMENT,2014-06-18T10:41,169
CDISCPILOT01,LB,01-701-1097,325,URATE,Urate,CHEMISTRY,4.6,mg/dL,2.5,7.5,273.608,273.608,umol/L,149,446,NORMAL,,13,WEEK 26,182,TREATMENT,2014-07-09T09:39,190
CDISCPILOT01,LB,01-701-1111,1,ALB,Albumin,CHEMISTRY,3.6,g/dL,3.5,4.6,36,36,g/L,35,46,NORMAL,Y,1,SCREENING 1,-7,SCREENING,2012-08-25T15:25,-13
CDISCPILOT01,LB,01-701-1111,38,ALB,Albumin,CHEMISTRY,3.8,g/dL,3.5,4.6,38,38,g/L,35,46,NORMAL,,4,WEEK 2,14,TREATMENT,2012-09-17T11:48,11
CDISCPILOT01,LB,01-701-1111,2,ALP,Alkaline Phosphatase,CHEMISTRY,64,U/L,35,115,64,64,U/L,35,115,NORMAL,Y,1,SCREENING 1,-7,SCREENING,2012-08-25T15:25,-13
CDISCPILOT01,LB,01-701-1111,39,ALP,Alkaline Phosphatase,CHEMISTRY,58,U/L,35,115,58,58,U/L,35,115,NORMAL,,4,WEEK 2,14,TREATMENT,2012-09-17T11:48,11
CDISCPILOT01,LB,01-701-1111,3,ALT,Alanine Aminotransferase,CHEMISTRY,23,U/L,6,32,23,23,U/L,6,32,NORMAL,Y,1,SCREENING 1,-7,SCREENING,2012-08-25T15:25,-13
CDISCPILOT01,LB,01-701-1111,40,ALT,Alanine Aminotransferase,CHEMISTRY,19,U/L,6,32,19,19,U/L,6,32,NORMAL,,4,WEEK 2,14,TREATMENT,2012-09-17T11:48,11
CDISCPILOT01,LB,01-701-1111,4,AST,Aspartate Aminotransferase,CHEMISTRY,28,U/L,9,34,28,28,U/L,9,34,NORMAL,Y,1,SCREENING 1,-7,SCREENING,2012-08-25T15:25,-13
CDISCPILOT01,LB,01-701-1111,42,AST,Aspartate Aminotransferase,CHEMISTRY,23,U/L,9,34,23,23,U/L,9,34,NORMAL,,4,WEEK 2,14,TREATMENT,2012-09-17T11:48,11
CDISCPILOT01,LB,01-701-1111,6,BILI,Bilirubin,CHEMISTRY,0.4,mg/dL,0.2,1.2,6.84,6.84,umol/L,3,21,NORMAL,Y,1,SCREENING 1,-7,SCREENING,2012-08-25T15:25,-13
CDISCPILOT01,LB,01-701-1111,44,BILI,Bilirubin,CHEMISTRY,0.5,mg/dL,0.2,1.2,8.55,8.55,umol/L,3,21,NORMAL,,4,WEEK 2,14,TREATMENT,2012-09-17T11:48,11
CDISCPILOT01,LB,01-701-1111,7,UREAN,Urea Nitrogen,CHEMISTRY,7,mg/dL,4,24,2.499,2.499,mmol/L,1.4,8.6,NORMAL,Y,1,SCREENING 1,-7,SCREENING,2012-08-25T15:25,-13
CDISCPILOT01,LB,01-701-1111,45,UREAN,Urea Nitrogen,CHEMISTRY,11,mg/dL,4,24,3.927,3.927,mmol/L,1.4,8.6,NORMAL,,4,WEEK 2,14,TREATMENT,2012-09-17T11:48,11
CDISCPILOT01,LB,01-701-1111,8,CA,Calcium,CHEMISTRY,8.9,mg/dL,8.4,10.3,2.22055,2.22055,mmol/L,2.1,2.57,NORMAL,Y,1,SCREENING 1,-7,SCREENING,2012-08-25T15:25,-13
CDISCPILOT01,LB,01-701-1111,46,CA,Calcium,CHEMISTRY,9.2,mg/dL,8.4,10.3,2.2954,2.2954,mmol/L,2.1,2.57,NORMAL,,4,WEEK 2,14,TREATMENT,2012-09-17T11:48,11
CDISCPILOT01,LB,01-701-1111,9,CHOL,Cholesterol,CHEMISTRY,221,mg/dL,156,300,5.71506,5.71506,mmol/L,4.03,7.76,NORMAL,Y,1,SCREENING 1,-7,SCREENING,2012-08-25T15:25,-13
CDISCPILOT01,LB,01-701-1111,47,CHOL,Cholesterol,CHEMISTRY,211,mg/dL,156,300,5.45646,5.45646,mmol/L,4.03,7.76,NORMAL,,4,WEEK 2,14,TREATMENT,2012-09-17T11:48,11
CDISCPILOT01,LB,01-701-1111,10,CK,Creatine Kinase,CHEMISTRY,60,U/L,21,169,60,60,U/L,21,169,NORMAL,Y,1,SCREENING 1,-7,SCREENING,2012-08-25T15:25,-13
CDISCPILOT01,LB,01-701-1111,48,CK,Creatine Kinase,CHEMISTRY,72,U/L,21,169,72,72,U/L,21,169,NORMAL,,4,WEEK 2,14,TREATMENT,2012-09-17T11:48,11
CDISCPILOT01,LB,01-701-1111,11,CL,Chloride,CHEMISTRY,105,mEq/L,94,112,105,105,mmol/L,94,112,NORMAL,Y,1,SCREENING 1,-7,SCREENING,2012-08-25T15:25,-13
CDISCPILOT01,LB,01-701-1111,49,CL,Chloride,CHEMISTRY,105,mEq/L,94,112,105,105,mmol/L,94,112,NORMAL,,4,WEEK 2,14,TREATMENT,2012-09-17T11:48,11
CDISCPILOT01,LB,01-701-1111,13,CREAT,Creatinine,CHEMISTRY,0.9,mg/dL,0.7,1.4,79.56,79.56,umol/L,62,124,NORMAL,Y,1,SCREENING 1,-7,SCREENING,2012-08-25T15:25,-13
CDISCPILOT01,LB,01-701-1111,51,CREAT,Creatinine,CHEMISTRY,1.0,mg/dL,0.7,1.4,88.4,88.4,umol/L,62,124,NORMAL,,4,WEEK 2,14,TREATMENT,2012-09-17T11:48,11
CDISCPILOT01,LB,01-701-1111,15,GGT,Gamma Glutamyl Transferase,CHEMISTRY,10,U/L,5,50,10,10,U/L,5,50,NORMAL,Y,1,SCREENING 1,-7,SCREENING,2012-08-25T15:25,-13
CDISCPILOT01,LB,01-701-1111,53,GGT,Gamma Glutamyl Transferase,CHEMISTRY,10,U/L,5,50,10,10,U/L,5,50,NORMAL,,4,WEEK 2,14,TREATMENT,2012-09-17T11:48,11
CDISCPILOT01,LB,01-701-1111,16,GLUC,Glucose,CHEMISTRY,96,mg/dL,50,250,5.32896,5.32896,mmol/L,2.8,13.9,NORMAL,Y,1,SCREENING 1,-7,SCREENING,2012-08-25T15:25,-13
CDISCPILOT01,LB,01-701-1111,54,GLUC,Glucose,CHEMISTRY,96,mg/dL,50,250,5.32896,5.32896,mmol/L,2.8,13.9,NORMAL,,4,WEEK 2,14,TREATMENT,2012-09-17T11:48,11
CDISCPILOT01,LB,01-701-1111,19,K,Potassium,CHEMISTRY,3.9,mEq/L,3.4,5.4,3.9,3.9,mmol/L,3.4,5.4,NORMAL,Y,1,SCREENING 1,-7,SCREENING,2012-08-25T15:25,-13
CDISCPILOT01,LB,01-701-1111,57,K,Potassium,CHEMISTRY,4.7,mEq/L,3.4,5.4,4.7,4.7,mmol/L,3.4,5.4,NORMAL,,4,WEEK 2,14,TREATMENT,2012-09-17T11:48,11
CDISCPILOT01,LB,01-701-1111,26,SODIUM,Sodium,CHEMISTRY,137,mEq/L,135,145,137,137,mmol/L,135,145,NORMAL,Y,1,SCREENING 1,-7,SCREENING,2012-08-25T15:25,-13
CDISCPILOT01,LB,01-701-1111,64,SODIUM,Sodium,CHEMISTRY,138,mEq/L,135,145,138,138,mmol/L,135,145,NORMAL,,4,WEEK 2,14,TREATMENT,2012-09-17T11:48,11
CDISCPILOT01,LB,01-701-1111,28,PHOS,Phosphate,CHEMISTRY,3.1,mg/dL,2.2,5.1,1.00099,1.00099,mmol/L,0.71,1.65,NORMAL,Y,1,SCREENING 1,-7,SCREENING,2012-08-25T15:25,-13
CDISCPILOT01,LB,01-701-1111,66,PHOS,Phosphate,CHEMISTRY,3.3,mg/dL,2.2,5.1,1.06557,1.06557,mmol/L,0.71,1.65,NORMAL,,4,WEEK 2,14,TREATMENT,2012-09-17T11:48,11
CDISCPILOT01,LB,01-701-1111,30,PROT,Protein,CHEMISTRY,7.2,g/dL,6,8,72,72,g/L,60,80,NORMAL,Y,1,SCREENING 1,-7,SCREENING,2012-08-25T15:25,-13
CDISCPILOT01,LB,01-701-1111,68,PROT,Protein,CHEMISTRY,7.3,g/dL,6,8,73,73,g/L,60,80,NORMAL,,4,WEEK 2,14,TREATMENT,2012-09-17T11:48,11
CDISCPILOT01,LB,01-701-1111,34,URATE,Urate,CHEMISTRY,3.2,mg/dL,2.5,7.5,190.336,190.336,umol/L,149,446,NORMAL,Y,1,SCREENING 1,-7,SCREENING,2012-08-25T15:25,-13
CDISCPILOT01,LB,01-701-1111,71,URATE,Urate,CHEMISTRY,3.8,mg/dL,2.5,7.5,226.024,226.024,umol/L,149,446,NORMAL,,4,WEEK 2,14,TREATMENT,2012-09-17T11:48,11
CDISCPILOT01,LB,01-701-1115,1,ALB,Albumin,CHEMISTRY,3.9,g/dL,3.5,4.6,39,39,g/L,35,46,NORMAL,Y,1,SCREENING 1,-7,SCREENING,2012-11-23T11:20,-7
CDISCPILOT01,LB,01-701-1115,38,ALB,Albumin,CHEMISTRY,3.6,g/dL,3.5,4.6,36,36,g/L,35,46,NORMAL,,4,WEEK 2,14,TREATMENT,2012-12-13T14:05,14
CDISCPILOT01,LB,01-701-1115,73,ALB,Albumin,CHEMISTRY,3.5,g/dL,3.5,4.6,35,35,g/L,35,46,NORMAL,,5,WEEK 4,28,TREATMENT,2012-12-26T08:44,27
CDISCPILOT01,LB,01-701-1115,103,ALB,Albumin,CHEMISTRY,3.7,g/dL,3.5,4.6,37,37,g/L,35,46,NORMAL,,5.1,UNSCHEDULED 5.1,NA,TREATMENT,2012-12-28T09:27,29
CDISCPILOT01,LB,01-701-1115,118,ALB,Albumin,CHEMISTRY,3.7,g/dL,3.5,4.6,37,37,g/L,35,46,NORMAL,,7,WEEK 6,42,TREATMENT,2013-01-10T15:20,42
CDISCPILOT01,LB,01-701-1115,148,ALB,Albumin,CHEMISTRY,3.9,g/dL,3.5,4.6,39,39,g/L,35,46,NORMAL,,8,WEEK 8,56,TREATMENT,2013-01-23T12:13,55
CDISCPILOT01,LB,01-701-1115,2,ALP,Alkaline Phosphatase,CHEMISTRY,93,U/L,35,115,93,93,U/L,35,115,NORMAL,Y,1,SCREENING 1,-7,SCREENING,2012-11-23T11:20,-7
CDISCPILOT01,LB,01-701-1115,39,ALP,Alkaline Phosphatase,CHEMISTRY,88,U/L,35,115,88,88,U/L,35,115,NORMAL,,4,WEEK 2,14,TREATMENT,2012-12-13T14:05,14
CDISCPILOT01,LB,01-701-1115,74,ALP,Alkaline Phosphatase,CHEMISTRY,91,U/L,35,115,91,91,U/L,35,115,NORMAL,,5,WEEK 4,28,TREATMENT,2012-12-26T08:44,27
CDISCPILOT01,LB,01-701-1115,104,ALP,Alkaline Phosphatase,CHEMISTRY,101,U/L,35,115,101,101,U/L,35,115,NORMAL,,5.1,UNSCHEDULED 5.1,NA,TREATMENT,2012-12-28T09:27,29
CDISCPILOT01,LB,01-701-1115,119,ALP,Alkaline Phosphatase,CHEMISTRY,98,U/L,35,115,98,98,U/L,35,115,NORMAL,,7,WEEK 6,42,TREATMENT,2013-01-10T15:20,42
CDISCPILOT01,LB,01-701-1115,149,ALP,Alkaline Phosphatase,CHEMISTRY,98,U/L,35,115,98,98,U/L,35,115,NORMAL,,8,WEEK 8,56,TREATMENT,2013-01-23T12:13,55
CDISCPILOT01,LB,01-701-1115,3,ALT,Alanine Aminotransferase,CHEMISTRY,18,U/L,6,35,18,18,U/L,6,35,NORMAL,Y,1,SCREENING 1,-7,SCREENING,2012-11-23T11:20,-7
CDISCPILOT01,LB,01-701-1115,40,ALT,Alanine Aminotransferase,CHEMISTRY,15,U/L,6,35,15,15,U/L,6,35,NORMAL,,4,WEEK 2,14,TREATMENT,2012-12-13T14:05,14
CDISCPILOT01,LB,01-701-1115,75,ALT,Alanine Aminotransferase,CHEMISTRY,13,U/L,6,35,13,13,U/L,6,35,NORMAL,,5,WEEK 4,28,TREATMENT,2012-12-26T08:44,27
CDISCPILOT01,LB,01-701-1115,105,ALT,Alanine Aminotransferase,CHEMISTRY,16,U/L,6,35,16,16,U/L,6,35,NORMAL,,5.1,UNSCHEDULED 5.1,NA,TREATMENT,2012-12-28T09:27,29
CDISCPILOT01,LB,01-701-1115,120,ALT,Alanine Aminotransferase,CHEMISTRY,18,U/L,6,35,18,18,U/L,6,35,NORMAL,,7,WEEK 6,42,TREATMENT,2013-01-10T15:20,42
CDISCPILOT01,LB,01-701-1115,150,ALT,Alanine Aminotransferase,CHEMISTRY,16,U/L,6,35,16,16,U/L,6,35,NORMAL,,8,WEEK 8,56,TREATMENT,2013-01-23T12:13,55
CDISCPILOT01,LB,01-701-1115,4,AST,Aspartate Aminotransferase,CHEMISTRY,26,U/L,11,36,26,26,U/L,11,36,NORMAL,Y,1,SCREENING 1,-7,SCREENING,2012-11-23T11:20,-7
CDISCPILOT01,LB,01-701-1115,41,AST,Aspartate Aminotransferase,CHEMISTRY,25,U/L,11,36,25,25,U/L,11,36,NORMAL,,4,WEEK 2,14,TREATMENT,2012-12-13T14:05,14
CDISCPILOT01,LB,01-701-1115,76,AST,Aspartate Aminotransferase,CHEMISTRY,20,U/L,11,36,20,20,U/L,11,36,NORMAL,,5,WEEK 4,28,TREATMENT,2012-12-26T08:44,27
CDISCPILOT01,LB,01-701-1115,106,AST,Aspartate Aminotransferase,CHEMISTRY,23,U/L,11,36,23,23,U/L,11,36,NORMAL,,5.1,UNSCHEDULED 5.1,NA,TREATMENT,2012-12-28T09:27,29
CDISCPILOT01,LB,01-701-1115,121,AST,Aspartate Aminotransferase,CHEMISTRY,25,U/L,11,36,25,25,U/L,11,36,NORMAL,,7,WEEK 6,42,TREATMENT,2013-01-10T15:20,42
CDISCPILOT01,LB,01-701-1115,151,AST,Aspartate Aminotransferase,CHEMISTRY,25,U/L,11,36,25,25,U/L,11,36,NORMAL,,8,WEEK 8,56,TREATMENT,2013-01-23T12:13,55
CDISCPILOT01,LB,01-701-1115,6,BILI,Bilirubin,CHEMISTRY,0.5,mg/dL,0.2,1.2,8.55,8.55,umol/L,3,21,NORMAL,Y,1,SCREENING 1,-7,SCREENING,2012-11-23T11:20,-7
CDISCPILOT01,LB,01-701-1115,43,BILI,Bilirubin,CHEMISTRY,0.4,mg/dL,0.2,1.2,6.84,6.84,umol/L,3,21,NORMAL,,4,WEEK 2,14,TREATMENT,2012-12-13T14:05,14
CDISCPILOT01,LB,01-701-1115,78,BILI,Bilirubin,CHEMISTRY,0.4,mg/dL,0.2,1.2,6.84,6.84,umol/L,3,21,NORMAL,,5,WEEK 4,28,TREATMENT,2012-12-26T08:44,27
CDISCPILOT01,LB,01-701-1115,107,BILI,Bilirubin,CHEMISTRY,0.3,mg/dL,0.2,1.2,5.13,5.13,umol/L,3,21,NORMAL,,5.1,UNSCHEDULED 5.1,NA,TREATMENT,2012-12-28T09:27,29
CDISCPILOT01,LB,01-701-1115,123,BILI,Bilirubin,CHEMISTRY,0.4,mg/dL,0.2,1.2,6.84,6.84,umol/L,3,21,NORMAL,,7,WEEK 6,42,TREATMENT,2013-01-10T15:20,42
CDISCPILOT01,LB,01-701-1115,153,BILI,Bilirubin,CHEMISTRY,0.5,mg/dL,0.2,1.2,8.55,8.55,umol/L,3,21,NORMAL,,8,WEEK 8,56,TREATMENT,2013-01-23T12:13,55
CDISCPILOT01,LB,01-701-1115,7,UREAN,Urea Nitrogen,CHEMISTRY,21,mg/dL,4,24,7.497,7.497,mmol/L,1.4,8.6,NORMAL,Y,1,SCREENING 1,-7,SCREENING,2012-11-23T11:20,-7
CDISCPILOT01,LB,01-701-1115,44,UREAN,Urea Nitrogen,CHEMISTRY,22,mg/dL,4,24,7.854,7.854,mmol/L,1.4,8.6,NORMAL,,4,WEEK 2,14,TREATMENT,2012-12-13T14:05,14
CDISCPILOT01,LB,01-701-1115,79,UREAN,Urea Nitrogen,CHEMISTRY,20,mg/dL,4,24,7.14,7.14,mmol/L,1.4,8.6,NORMAL,,5,WEEK 4,28,TREATMENT,2012-12-26T08:44,27
CDISCPILOT01,LB,01-701-1115,108,UREAN,Urea Nitrogen,CHEMISTRY,21,mg/dL,4,24,7.497,7.497,mmol/L,1.4,8.6,NORMAL,,5.1,UNSCHEDULED 5.1,NA,TREATMENT,2012-12-28T09:27,29
CDISCPILOT01,LB,01-701-1115,124,UREAN,Urea Nitrogen,CHEMISTRY,25,mg/dL,4,24,8.925,8.925,mmol/L,1.4,8.6,HIGH,,7,WEEK 6,42,TREATMENT,2013-01-10T15:20,42
CDISCPILOT01,LB,01-701-1115,154,UREAN,Urea Nitrogen,CHEMISTRY,22,mg/dL,4,24,7.854,7.854,mmol/L,1.4,8.6,NORMAL,,8,WEEK 8,56,TREATMENT,2013-01-23T12:13,55
CDISCPILOT01,LB,01-701-1115,8,CA,Calcium,CHEMISTRY,9.1,mg/dL,8.4,10.3,2.27045,2.27045,mmol/L,2.1,2.57,NORMAL,Y,1,SCREENING 1,-7,SCREENING,2012-11-23T11:20,-7
CDISCPILOT01,LB,01-701-1115,45,CA,Calcium,CHEMISTRY,8.9,mg/dL,8.4,10.3,2.22055,2.22055,mmol/L,2.1,2.57,NORMAL,,4,WEEK 2,14,TREATMENT,2012-12-13T14:05,14
CDISCPILOT01,LB,01-701-1115,80,CA,Calcium,CHEMISTRY,9.2,mg/dL,8.4,10.3,2.2954,2.2954,mmol/L,2.1,2.57,NORMAL,,5,WEEK 4,28,TREATMENT,2012-12-26T08:44,27
CDISCPILOT01,LB,01-701-1115,109,CA,Calcium,CHEMISTRY,9.6,mg/dL,8.4,10.3,2.3952,2.3952,mmol/L,2.1,2.57,NORMAL,,5.1,UNSCHEDULED 5.1,NA,TREATMENT,2012-12-28T09:27,29
CDISCPILOT01,LB,01-701-1115,125,CA,Calcium,CHEMISTRY,9.2,mg/dL,8.4,10.3,2.2954,2.2954,mmol/L,2.1,2.57,NORMAL,,7,WEEK 6,42,TREATMENT,2013-01-10T15:20,42
CDISCPILOT01,LB,01-701-1115,155,CA,Calcium,CHEMISTRY,8.9,mg/dL,8.4,10.3,2.22055,2.22055,mmol/L,2.1,2.57,NORMAL,,8,WEEK 8,56,TREATMENT,2013-01-23T12:13,55
CDISCPILOT01,LB,01-701-1115,9,CHOL,Cholesterol,CHEMISTRY,254,mg/dL,149,286,6.56844,6.56844,mmol/L,3.85,7.4,NORMAL,Y,1,SCREENING 1,-7,SCREENING,2012-11-23T11:20,-7
CDISCPILOT01,LB,01-701-1115,46,CHOL,Cholesterol,CHEMISTRY,226,mg/dL,149,286,5.84436,5.84436,mmol/L,3.85,7.4,NORMAL,,4,WEEK 2,14,TREATMENT,2012-12-13T14:05,14
CDISCPILOT01,LB,01-701-1115,81,CHOL,Cholesterol,CHEMISTRY,219,mg/dL,149,286,5.66334,5.66334,mmol/L,3.85,7.4,NORMAL,,5,WEEK 4,28,TREATMENT,2012-12-26T08:44,27
CDISCPILOT01,LB,01-701-1115,110,CHOL,Cholesterol,CHEMISTRY,235,mg/dL,149,286,6.0771,6.0771,mmol/L,3.85,7.4,NORMAL,,5.1,UNSCHEDULED 5.1,NA,TREATMENT,2012-12-28T09:27,29
CDISCPILOT01,LB,01-701-1115,126,CHOL,Cholesterol,CHEMISTRY,242,mg/dL,149,286,6.25812,6.25812,mmol/L,3.85,7.4,NORMAL,,7,WEEK 6,42,TREATMENT,2013-01-10T15:20,42
CDISCPILOT01,LB,01-701-1115,156,CHOL,Cholesterol,CHEMISTRY,252,mg/dL,149,286,6.51672,6.51672,mmol/L,3.85,7.4,NORMAL,,8,WEEK 8,56,TREATMENT,2013-01-23T12:13,55
CDISCPILOT01,LB,01-701-1115,10,CK,Creatine Kinase,CHEMISTRY,79,U/L,22,198,79,79,U/L,22,198,NORMAL,Y,1,SCREENING 1,-7,SCREENING,2012-11-23T11:20,-7
CDISCPILOT01,LB,01-701-1115,47,CK,Creatine Kinase,CHEMISTRY,73,U/L,22,198,73,73,U/L,22,198,NORMAL,,4,WEEK 2,14,TREATMENT,2012-12-13T14:05,14
CDISCPILOT01,LB,01-701-1115,82,CK,Creatine Kinase,CHEMISTRY,75,U/L,22,198,75,75,U/L,22,198,NORMAL,,5,WEEK 4,28,TREATMENT,2012-12-26T08:44,27
CDISCPILOT01,LB,01-701-1115,111,CK,Creatine Kinase,CHEMISTRY,58,U/L,22,198,58,58,U/L,22,198,NORMAL,,5.1,UNSCHEDULED 5.1,NA,TREATMENT,2012-12-28T09:27,29
CDISCPILOT01,LB,01-701-1115,127,CK,Creatine Kinase,CHEMISTRY,78,U/L,22,198,78,78,U/L,22,198,NORMAL,,7,WEEK 6,42,TREATMENT,2013-01-10T15:20,42
CDISCPILOT01,LB,01-701-1115,157,CK,Creatine Kinase,CHEMISTRY,94,U/L,22,198,94,94,U/L,22,198,NORMAL,,8,WEEK 8,56,TREATMENT,2013-01-23T12:13,55
CDISCPILOT01,LB,01-701-1115,11,CL,Chloride,CHEMISTRY,102,mEq/L,94,112,102,102,mmol/L,94,112,NORMAL,Y,1,SCREENING 1,-7,SCREENING,2012-11-23T11:20,-7
CDISCPILOT01,LB,01-701-1115,48,CL,Chloride,CHEMISTRY,107,mEq/L,94,112,107,107,mmol/L,94,112,NORMAL,,4,WEEK 2,14,TREATMENT,2012-12-13T14:05,14
CDISCPILOT01,LB,01-701-1115,83,CL,Chloride,CHEMISTRY,106,mEq/L,94,112,106,106,mmol/L,94,112,NORMAL,,5,WEEK 4,28,TREATMENT,2012-12-26T08:44,27
CDISCPILOT01,LB,01-701-1115,128,CL,Chloride,CHEMISTRY,108,mEq/L,94,112,108,108,mmol/L,94,112,NORMAL,,7,WEEK 6,42,TREATMENT,2013-01-10T15:20,42
CDISCPILOT01,LB,01-701-1115,158,CL,Chloride,CHEMISTRY,104,mEq/L,94,112,104,104,mmol/L,94,112,NORMAL,,8,WEEK 8,56,TREATMENT,2013-01-23T12:13,55
CDISCPILOT01,LB,01-701-1115,13,CREAT,Creatinine,CHEMISTRY,1.3,mg/dL,0.8,1.6,114.92,114.92,umol/L,71,141,NORMAL,Y,1,SCREENING 1,-7,SCREENING,2012-11-23T11:20,-7
CDISCPILOT01,LB,01-701-1115,50,CREAT,Creatinine,CHEMISTRY,1.3,mg/dL,0.8,1.6,114.92,114.92,umol/L,71,141,NORMAL,,4,WEEK 2,14,TREATMENT,2012-12-13T14:05,14
CDISCPILOT01,LB,01-701-1115,84,CREAT,Creatinine,CHEMISTRY,1.3,mg/dL,0.8,1.6,114.92,114.92,umol/L,71,141,NORMAL,,5,WEEK 4,28,TREATMENT,2012-12-26T08:44,27
CDISCPILOT01,LB,01-701-1115,112,CREAT,Creatinine,CHEMISTRY,1.3,mg/dL,0.8,1.6,114.92,114.92,umol/L,71,141,NORMAL,,5.1,UNSCHEDULED 5.1,NA,TREATMENT,2012-12-28T09:27,29
CDISCPILOT01,LB,01-701-1115,129,CREAT,Creatinine,CHEMISTRY,1.5,mg/dL,0.8,1.6,132.6,132.6,umol/L,71,141,NORMAL,,7,WEEK 6,42,TREATMENT,2013-01-10T15:20,42
CDISCPILOT01,LB,01-701-1115,160,CREAT,Creatinine,CHEMISTRY,1.3,mg/dL,0.8,1.6,114.92,114.92,umol/L,71,141,NORMAL,,8,WEEK 8,56,TREATMENT,2013-01-23T12:13,55
CDISCPILOT01,LB,01-701-1115,15,GGT,Gamma Glutamyl Transferase,CHEMISTRY,31,U/L,10,50,31,31,U/L,10,50,NORMAL,Y,1,SCREENING 1,-7,SCREENING,2012-11-23T11:20,-7
CDISCPILOT01,LB,01-701-1115,52,GGT,Gamma Glutamyl Transferase,CHEMISTRY,31,U/L,10,50,31,31,U/L,10,50,NORMAL,,4,WEEK 2,14,TREATMENT,2012-12-13T14:05,14
CDISCPILOT01,LB,01-701-1115,86,GGT,Gamma Glutamyl Transferase,CHEMISTRY,30,U/L,10,50,30,30,U/L,10,50,NORMAL,,5,WEEK 4,28,TREATMENT,2012-12-26T08:44,27
CDISCPILOT01,LB,01-701-1115,113,GGT,Gamma Glutamyl Transferase,CHEMISTRY,34,U/L,10,50,34,34,U/L,10,50,NORMAL,,5.1,UNSCHEDULED 5.1,NA,TREATMENT,2012-12-28T09:27,29
CDISCPILOT01,LB,01-701-1115,131,GGT,Gamma Glutamyl Transferase,CHEMISTRY,37,U/L,10,50,37,37,U/L,10,50,NORMAL,,7,WEEK 6,42,TREATMENT,2013-01-10T15:20,42
CDISCPILOT01,LB,01-701-1115,162,GGT,Gamma Glutamyl Transferase,CHEMISTRY,34,U/L,10,50,34,34,U/L,10,50,NORMAL,,8,WEEK 8,56,TREATMENT,2013-01-23T12:13,55
CDISCPILOT01,LB,01-701-1115,16,GLUC,Glucose,CHEMISTRY,74,mg/dL,50,250,4.10774,4.10774,mmol/L,2.8,13.9,NORMAL,Y,1,SCREENING 1,-7,SCREENING,2012-11-23T11:20,-7
CDISCPILOT01,LB,01-701-1115,53,GLUC,Glucose,CHEMISTRY,85,mg/dL,50,250,4.71835,4.71835,mmol/L,2.8,13.9,NORMAL,,4,WEEK 2,14,TREATMENT,2012-12-13T14:05,14
CDISCPILOT01,LB,01-701-1115,87,GLUC,Glucose,CHEMISTRY,<40,mg/dL,50,250,<2.2204,NA,mmol/L,2.8,13.9,LOW,,5,WEEK 4,28,TREATMENT,2012-12-26T08:44,27
CDISCPILOT01,LB,01-701-1115,114,GLUC,Glucose,CHEMISTRY,48,mg/dL,50,250,2.66448,2.66448,mmol/L,2.8,13.9,LOW,,5.1,UNSCHEDULED 5.1,NA,TREATMENT,2012-12-28T09:27,29
CDISCPILOT01,LB,01-701-1115,132,GLUC,Glucose,CHEMISTRY,91,mg/dL,50,250,5.05141,5.05141,mmol/L,2.8,13.9,NORMAL,,7,WEEK 6,42,TREATMENT,2013-01-10T15:20,42
CDISCPILOT01,LB,01-701-1115,163,GLUC,Glucose,CHEMISTRY,79,mg/dL,50,250,4.38529,4.38529,mmol/L,2.8,13.9,NORMAL,,8,WEEK 8,56,TREATMENT,2013-01-23T12:13,55
CDISCPILOT01,LB,01-701-1115,19,K,Potassium,CHEMISTRY,4.3,mEq/L,3.4,5.4,4.3,4.3,mmol/L,3.4,5.4,NORMAL,Y,1,SCREENING 1,-7,SCREENING,2012-11-23T11:20,-7
CDISCPILOT01,LB,01-701-1115,56,K,Potassium,CHEMISTRY,5.1,mEq/L,3.4,5.4,5.1,5.1,mmol/L,3.4,5.4,NORMAL,,4,WEEK 2,14,TREATMENT,2012-12-13T14:05,14
CDISCPILOT01,LB,01-701-1115,90,K,Potassium,CHEMISTRY,4.7,mEq/L,3.4,5.4,4.7,4.7,mmol/L,3.4,5.4,NORMAL,,5,WEEK 4,28,TREATMENT,2012-12-26T08:44,27
CDISCPILOT01,LB,01-701-1115,135,K,Potassium,CHEMISTRY,5.3,mEq/L,3.4,5.4,5.3,5.3,mmol/L,3.4,5.4,NORMAL,,7,WEEK 6,42,TREATMENT,2013-01-10T15:20,42
CDISCPILOT01,LB,01-701-1115,166,K,Potassium,CHEMISTRY,4.7,mEq/L,3.4,5.4,4.7,4.7,mmol/L,3.4,5.4,NORMAL,,8,WEEK 8,56,TREATMENT,2013-01-23T12:13,55
CDISCPILOT01,LB,01-701-1115,26,SODIUM,Sodium,CHEMISTRY,139,mEq/L,135,145,139,139,mmol/L,135,145,NORMAL,Y,1,SCREENING 1,-7,SCREENING,2012-11-23T11:20,-7
CDISCPILOT01,LB,01-701-1115,63,SODIUM,Sodium,CHEMISTRY,142,mEq/L,135,145,142,142,mmol/L,135,145,NORMAL,,4,WEEK 2,14,TREATMENT,2012-12-13T14:05,14
CDISCPILOT01,LB,01-701-1115,96,SODIUM,Sodium,CHEMISTRY,140,mEq/L,135,145,140,140,mmol/L,135,145,NORMAL,,5,WEEK 4,28,TREATMENT,2012-12-26T08:44,27
CDISCPILOT01,LB,01-701-1115,141,SODIUM,Sodium,CHEMISTRY,144,mEq/L,135,145,144,144,mmol/L,135,145,NORMAL,,7,WEEK 6,42,TREATMENT,2013-01-10T15:20,42
CDISCPILOT01,LB,01-701-1115,173,SODIUM,Sodium,CHEMISTRY,141,mEq/L,135,145,141,141,mmol/L,135,145,NORMAL,,8,WEEK 8,56,TREATMENT,2013-01-23T12:13,55
CDISCPILOT01,LB,01-701-1115,28,PHOS,Phosphate,CHEMISTRY,3.4,mg/dL,2.2,5.1,1.09786,1.09786,mmol/L,0.71,1.65,NORMAL,Y,1,SCREENING 1,-7,SCREENING,2012-11-23T11:20,-7
CDISCPILOT01,LB,01-701-1115,65,PHOS,Phosphate,CHEMISTRY,3.7,mg/dL,2.2,5.1,1.19473,1.19473,mmol/L,0.71,1.65,NORMAL,,4,WEEK 2,14,TREATMENT,2012-12-13T14:05,14
CDISCPILOT01,LB,01-701-1115,97,PHOS,Phosphate,CHEMISTRY,3.1,mg/dL,2.2,5.1,1.00099,1.00099,mmol/L,0.71,1.65,NORMAL,,5,WEEK 4,28,TREATMENT,2012-12-26T08:44,27
CDISCPILOT01,LB,01-701-1115,115,PHOS,Phosphate,CHEMISTRY,2.9,mg/dL,2.2,5.1,0.93641,0.93641,mmol/L,0.71,1.65,NORMAL,,5.1,UNSCHEDULED 5.1,NA,TREATMENT,2012-12-28T09:27,29
CDISCPILOT01,LB,01-701-1115,142,PHOS,Phosphate,CHEMISTRY,3.7,mg/dL,2.2,5.1,1.19473,1.19473,mmol/L,0.71,1.65,NORMAL,,7,WEEK 6,42,TREATMENT,2013-01-10T15:20,42
CDISCPILOT01,LB,01-701-1115,175,PHOS,Phosphate,CHEMISTRY,3.4,mg/dL,2.2,5.1,1.09786,1.09786,mmol/L,0.71,1.65,NORMAL,,8,WEEK 8,56,TREATMENT,2013-01-23T12:13,55
CDISCPILOT01,LB,01-701-1115,30,PROT,Protein,CHEMISTRY,6.7,g/dL,6,8,67,67,g/L,60,80,NORMAL,Y,1,SCREENING 1,-7,SCREENING,2012-11-23T11:20,-7
CDISCPILOT01,LB,01-701-1115,67,PROT,Protein,CHEMISTRY,6.3,g/dL,6,8,63,63,g/L,60,80,NORMAL,,4,WEEK 2,14,TREATMENT,2012-12-13T14:05,14
CDISCPILOT01,LB,01-701-1115,99,PROT,Protein,CHEMISTRY,6.3,g/dL,6,8,63,63,g/L,60,80,NORMAL,,5,WEEK 4,28,TREATMENT,2012-12-26T08:44,27
CDISCPILOT01,LB,01-701-1115,116,PROT,Protein,CHEMISTRY,6.9,g/dL,6,8,69,69,g/L,60,80,NORMAL,,5.1,UNSCHEDULED 5.1,NA,TREATMENT,2012-12-28T09:27,29
CDISCPILOT01,LB,01-701-1115,144,PROT,Protein,CHEMISTRY,7.0,g/dL,6,8,70,70,g/L,60,80,NORMAL,,7,WEEK 6,42,TREATMENT,2013-01-10T15:20,42
CDISCPILOT01,LB,01-701-1115,177,PROT,Protein,CHEMISTRY,7.1,g/dL,6,8,71,71,g/L,60,80,NORMAL,,8,WEEK 8,56,TREATMENT,2013-01-23T12:13,55
CDISCPILOT01,LB,01-701-1115,34,URATE,Urate,CHEMISTRY,4.9,mg/dL,2.5,7.5,291.452,291.452,umol/L,149,446,NORMAL,Y,1,SCREENING 1,-7,SCREENING,2012-11-23T11:20,-7
CDISCPILOT01,LB,01-701-1115,70,URATE,Urate,CHEMISTRY,4.4,mg/dL,2.5,7.5,261.712,261.712,umol/L,149,446,NORMAL,,4,WEEK 2,14,TREATMENT,2012-12-13T14:05,14
CDISCPILOT01,LB,01-701-1115,101,URATE,Urate,CHEMISTRY,4.7,mg/dL,2.5,7.5,279.556,279.556,umol/L,149,446,NORMAL,,5,WEEK 4,28,TREATMENT,2012-12-26T08:44,27
CDISCPILOT01,LB,01-701-1115,117,URATE,Urate,CHEMISTRY,4.4,mg/dL,2.5,7.5,261.712,261.712,umol/L,149,446,NORMAL,,5.1,UNSCHEDULED 5.1,NA,TREATMENT,2012-12-28T09:27,29
CDISCPILOT01,LB,01-701-1115,146,URATE,Urate,CHEMISTRY,5.2,mg/dL,2.5,7.5,309.296,309.296,umol/L,149,446,NORMAL,,7,WEEK 6,42,TREATMENT,2013-01-10T15:20,42
CDISCPILOT01,LB,01-701-1115,180,URATE,Urate,CHEMISTRY,4.5,mg/dL,2.5,7.5,267.66,267.66,umol/L,149,446,NORMAL,,8,WEEK 8,56,TREATMENT,2013-01-23T12:13,55
CDISCPILOT01,LB,01-701-1118,1,ALB,Albumin,CHEMISTRY,3.9,g/dL,3.3,4.9,39,39,g/L,33,49,NORMAL,Y,1,SCREENING 1,-7,SCREENING,2014-02-27T10:32,-13
CDISCPILOT01,LB,01-701-1118,38,ALB,Albumin,CHEMISTRY,4.2,g/dL,3.3,4.9,42,42,g/L,33,49,NORMAL,,4,WEEK 2,14,TREATMENT,2014-03-26T10:50,15
CDISCPILOT01,LB,01-701-1118,73,ALB,Albumin,CHEMISTRY,4.4,g/dL,3.3,4.9,44,44,g/L,33,49,NORMAL,,5,WEEK 4,28,TREATMENT,2014-04-09T11:01,29
CDISCPILOT01,LB,01-701-1118,103,ALB,Albumin,CHEMISTRY,4.1,g/dL,3.3,4.9,41,41,g/L,33,49,NORMAL,,7,WEEK 6,42,TREATMENT,2014-04-23T15:22,43
CDISCPILOT01,LB,01-701-1118,133,ALB,Albumin,CHEMISTRY,3.9,g/dL,3.3,4.9,39,39,g/L,33,49,NORMAL,,8,WEEK 8,56,TREATMENT,2014-05-08T09:30,58
CDISCPILOT01,LB,01-701-1118,163,ALB,Albumin,CHEMISTRY,4.0,g/dL,3.3,4.9,40,40,g/L,33,49,NORMAL,,9,WEEK 12,84,TREATMENT,2014-06-05T08:14,86
CDISCPILOT01,LB,01-701-1118,198,ALB,Albumin,CHEMISTRY,4.1,g/dL,3.3,4.9,41,41,g/L,33,49,NORMAL,,10,WEEK 16,112,TREATMENT,2014-07-02T10:12,113
CDISCPILOT01,LB,01-701-1118,228,ALB,Albumin,CHEMISTRY,4.1,g/dL,3.3,4.9,41,41,g/L,33,49,NORMAL,,11,WEEK 20,140,TREATMENT,2014-07-30T13:50,141
CDISCPILOT01,LB,01-701-1118,258,ALB,Albumin,CHEMISTRY,4.2,g/dL,3.3,4.9,42,42,g/L,33,49,NORMAL,,12,WEEK 24,168,TREATMENT,2014-08-27T11:27,169
CDISCPILOT01,LB,01-701-1118,293,ALB,Albumin,CHEMISTRY,3.9,g/dL,3.3,4.9,39,39,g/L,33,49,NORMAL,,13,WEEK 26,182,TREATMENT,2014-09-09T13:28,182
CDISCPILOT01,LB,01-701-1118,2,ALP,Alkaline Phosphatase,CHEMISTRY,65,U/L,31,110,65,65,U/L,31,110,NORMAL,Y,1,SCREENING 1,-7,SCREENING,2014-02-27T10:32,-13
CDISCPILOT01,LB,01-701-1118,39,ALP,Alkaline Phosphatase,CHEMISTRY,76,U/L,31,110,76,76,U/L,31,110,NORMAL,,4,WEEK 2,14,TREATMENT,2014-03-26T10:50,15
CDISCPILOT01,LB,01-701-1118,74,ALP,Alkaline Phosphatase,CHEMISTRY,67,U/L,31,110,67,67,U/L,31,110,NORMAL,,5,WEEK 4,28,TREATMENT,2014-04-09T11:01,29
CDISCPILOT01,LB,01-701-1118,104,ALP,Alkaline Phosphatase,CHEMISTRY,62,U/L,31,110,62,62,U/L,31,110,NORMAL,,7,WEEK 6,42,TREATMENT,2014-04-23T15:22,43
CDISCPILOT01,LB,01-701-1118,134,ALP,Alkaline Phosphatase,CHEMISTRY,67,U/L,31,110,67,67,U/L,31,110,NORMAL,,8,WEEK 8,56,TREATMENT,2014-05-08T09:30,58
CDISCPILOT01,LB,01-701-1118,164,ALP,Alkaline Phosphatase,CHEMISTRY,70,U/L,31,110,70,70,U/L,31,110,NORMAL,,9,WEEK 12,84,TREATMENT,2014-06-05T08:14,86
CDISCPILOT01,LB,01-701-1118,199,ALP,Alkaline Phosphatase,CHEMISTRY,65,U/L,31,110,65,65,U/L,31,110,NORMAL,,10,WEEK 16,112,TREATMENT,2014-07-02T10:12,113
CDISCPILOT01,LB,01-701-1118,229,ALP,Alkaline Phosphatase,CHEMISTRY,62,U/L,31,110,62,62,U/L,31,110,NORMAL,,11,WEEK 20,140,TREATMENT,2014-07-30T13:50,141
CDISCPILOT01,LB,01-701-1118,259,ALP,Alkaline Phosphatase,CHEMISTRY,58,U/L,31,110,58,58,U/L,31,110,NORMAL,,12,WEEK 24,168,TREATMENT,2014-08-27T11:27,169
CDISCPILOT01,LB,01-701-1118,294,ALP,Alkaline Phosphatase,CHEMISTRY,56,U/L,31,110,56,56,U/L,31,110,NORMAL,,13,WEEK 26,182,TREATMENT,2014-09-09T13:28,182
CDISCPILOT01,LB,01-701-1118,3,ALT,Alanine Aminotransferase,CHEMISTRY,15,U/L,6,43,15,15,U/L,6,43,NORMAL,Y,1,SCREENING 1,-7,SCREENING,2014-02-27T10:32,-13
CDISCPILOT01,LB,01-701-1118,40,ALT,Alanine Aminotransferase,CHEMISTRY,7,U/L,6,43,7,7,U/L,6,43,NORMAL,,4,WEEK 2,14,TREATMENT,2014-03-26T10:50,15
CDISCPILOT01,LB,01-701-1118,75,ALT,Alanine Aminotransferase,CHEMISTRY,15,U/L,6,43,15,15,U/L,6,43,NORMAL,,5,WEEK 4,28,TREATMENT,2014-04-09T11:01,29
CDISCPILOT01,LB,01-701-1118,105,ALT,Alanine Aminotransferase,CHEMISTRY,11,U/L,6,43,11,11,U/L,6,43,NORMAL,,7,WEEK 6,42,TREATMENT,2014-04-23T15:22,43
CDISCPILOT01,LB,01-701-1118,135,ALT,Alanine Aminotransferase,CHEMISTRY,15,U/L,6,43,15,15,U/L,6,43,NORMAL,,8,WEEK 8,56,TREATMENT,2014-05-08T09:30,58
CDISCPILOT01,LB,01-701-1118,165,ALT,Alanine Aminotransferase,CHEMISTRY,16,U/L,6,43,16,16,U/L,6,43,NORMAL,,9,WEEK 12,84,TREATMENT,2014-06-05T08:14,86
CDISCPILOT01,LB,01-701-1118,200,ALT,Alanine Aminotransferase,CHEMISTRY,15,U/L,6,43,15,15,U/L,6,43,NORMAL,,10,WEEK 16,112,TREATMENT,2014-07-02T10:12,113
CDISCPILOT01,LB,01-701-1118,230,ALT,Alanine Aminotransferase,CHEMISTRY,13,U/L,6,43,13,13,U/L,6,43,NORMAL,,11,WEEK 20,140,TREATMENT,2014-07-30T13:50,141
CDISCPILOT01,LB,01-701-1118,260,ALT,Alanine Aminotransferase,CHEMISTRY,13,U/L,6,43,13,13,U/L,6,43,NORMAL,,12,WEEK 24,168,TREATMENT,2014-08-27T11:27,169
CDISCPILOT01,LB,01-701-1118,295,ALT,Alanine Aminotransferase,CHEMISTRY,10,U/L,6,43,10,10,U/L,6,43,NORMAL,,13,WEEK 26,182,TREATMENT,2014-09-09T13:28,182
CDISCPILOT01,LB,01-701-1118,4,AST,Aspartate Aminotransferase,CHEMISTRY,15,U/L,11,36,15,15,U/L,11,36,NORMAL,Y,1,SCREENING 1,-7,SCREENING,2014-02-27T10:32,-13
CDISCPILOT01,LB,01-701-1118,41,AST,Aspartate Aminotransferase,CHEMISTRY,13,U/L,11,36,13,13,U/L,11,36,NORMAL,,4,WEEK 2,14,TREATMENT,2014-03-26T10:50,15
CDISCPILOT01,LB,01-701-1118,76,AST,Aspartate Aminotransferase,CHEMISTRY,14,U/L,11,36,14,14,U/L,11,36,NORMAL,,5,WEEK 4,28,TREATMENT,2014-04-09T11:01,29
CDISCPILOT01,LB,01-701-1118,106,AST,Aspartate Aminotransferase,CHEMISTRY,15,U/L,11,36,15,15,U/L,11,36,NORMAL,,7,WEEK 6,42,TREATMENT,2014-04-23T15:22,43
CDISCPILOT01,LB,01-701-1118,136,AST,Aspartate Aminotransferase,CHEMISTRY,18,U/L,11,36,18,18,U/L,11,36,NORMAL,,8,WEEK 8,56,TREATMENT,2014-05-08T09:30,58
CDISCPILOT01,LB,01-701-1118,166,AST,Aspartate Aminotransferase,CHEMISTRY,13,U/L,11,36,13,13,U/L,11,36,NORMAL,,9,WEEK 12,84,TREATMENT,2014-06-05T08:14,86
CDISCPILOT01,LB,01-701-1118,201,AST,Aspartate Aminotransferase,CHEMISTRY,18,U/L,11,36,18,18,U/L,11,36,NORMAL,,10,WEEK 16,112,TREATMENT,2014-07-02T10:12,113
CDISCPILOT01,LB,01-701-1118,231,AST,Aspartate Aminotransferase,CHEMISTRY,14,U/L,11,36,14,14,U/L,11,36,NORMAL,,11,WEEK 20,140,TREATMENT,2014-07-30T13:50,141
CDISCPILOT01,LB,01-701-1118,261,AST,Aspartate Aminotransferase,CHEMISTRY,11,U/L,11,36,11,11,U/L,11,36,NORMAL,,12,WEEK 24,168,TREATMENT,2014-08-27T11:27,169
CDISCPILOT01,LB,01-701-1118,296,AST,Aspartate Aminotransferase,CHEMISTRY,12,U/L,11,36,12,12,U/L,11,36,NORMAL,,13,WEEK 26,182,TREATMENT,2014-09-09T13:28,182
CDISCPILOT01,LB,01-701-1118,6,BILI,Bilirubin,CHEMISTRY,0.7,mg/dL,0.2,1.2,11.97,11.97,umol/L,3,21,NORMAL,Y,1,SCREENING 1,-7,SCREENING,2014-02-27T10:32,-13
CDISCPILOT01,LB,01-701-1118,43,BILI,Bilirubin,CHEMISTRY,0.5,mg/dL,0.2,1.2,8.55,8.55,umol/L,3,21,NORMAL,,4,WEEK 2,14,TREATMENT,2014-03-26T10:50,15
CDISCPILOT01,LB,01-701-1118,78,BILI,Bilirubin,CHEMISTRY,0.6,mg/dL,0.2,1.2,10.26,10.26,umol/L,3,21,NORMAL,,5,WEEK 4,28,TREATMENT,2014-04-09T11:01,29
CDISCPILOT01,LB,01-701-1118,108,BILI,Bilirubin,CHEMISTRY,0.5,mg/dL,0.2,1.2,8.55,8.55,umol/L,3,21,NORMAL,,7,WEEK 6,42,TREATMENT,2014-04-23T15:22,43
CDISCPILOT01,LB,01-701-1118,138,BILI,Bilirubin,CHEMISTRY,0.6,mg/dL,0.2,1.2,10.26,10.26,umol/L,3,21,NORMAL,,8,WEEK 8,56,TREATMENT,2014-05-08T09:30,58
CDISCPILOT01,LB,01-701-1118,168,BILI,Bilirubin,CHEMISTRY,0.5,mg/dL,0.2,1.2,8.55,8.55,umol/L,3,21,NORMAL,,9,WEEK 12,84,TREATMENT,2014-06-05T08:14,86
CDISCPILOT01,LB,01-701-1118,203,BILI,Bilirubin,CHEMISTRY,0.6,mg/dL,0.2,1.2,10.26,10.26,umol/L,3,21,NORMAL,,10,WEEK 16,112,TREATMENT,2014-07-02T10:12,113
CDISCPILOT01,LB,01-701-1118,233,BILI,Bilirubin,CHEMISTRY,0.6,mg/dL,0.2,1.2,10.26,10.26,umol/L,3,21,NORMAL,,11,WEEK 20,140,TREATMENT,2014-07-30T13:50,141
CDISCPILOT01,LB,01-701-1118,263,BILI,Bilirubin,CHEMISTRY,0.5,mg/dL,0.2,1.2,8.55,8.55,umol/L,3,21,NORMAL,,12,WEEK 24,168,TREATMENT,2014-08-27T11:27,169
CDISCPILOT01,LB,01-701-1118,298,BILI,Bilirubin,CHEMISTRY,0.5,mg/dL,0.2,1.2,8.55,8.55,umol/L,3,21,NORMAL,,13,WEEK 26,182,TREATMENT,2014-09-09T13:28,182
CDISCPILOT01,LB,01-701-1118,7,UREAN,Urea Nitrogen,CHEMISTRY,15,mg/dL,4,24,5.355,5.355,mmol/L,1.4,8.6,NORMAL,Y,1,SCREENING 1,-7,SCREENING,2014-02-27T10:32,-13
CDISCPILOT01,LB,01-701-1118,44,UREAN,Urea Nitrogen,CHEMISTRY,13,mg/dL,4,24,4.641,4.641,mmol/L,1.4,8.6,NORMAL,,4,WEEK 2,14,TREATMENT,2014-03-26T10:50,15
CDISCPILOT01,LB,01-701-1118,79,UREAN,Urea Nitrogen,CHEMISTRY,12,mg/dL,4,24,4.284,4.284,mmol/L,1.4,8.6,NORMAL,,5,WEEK 4,28,TREATMENT,2014-04-09T11:01,29
CDISCPILOT01,LB,01-701-1118,109,UREAN,Urea Nitrogen,CHEMISTRY,15,mg/dL,4,24,5.355,5.355,mmol/L,1.4,8.6,NORMAL,,7,WEEK 6,42,TREATMENT,2014-04-23T15:22,43
CDISCPILOT01,LB,01-701-1118,139,UREAN,Urea Nitrogen,CHEMISTRY,12,mg/dL,4,24,4.284,4.284,mmol/L,1.4,8.6,NORMAL,,8,WEEK 8,56,TREATMENT,2014-05-08T09:30,58
CDISCPILOT01,LB,01-701-1118,169,UREAN,Urea Nitrogen,CHEMISTRY,11,mg/dL,4,24,3.927,3.927,mmol/L,1.4,8.6,NORMAL,,9,WEEK 12,84,TREATMENT,2014-06-05T08:14,86
CDISCPILOT01,LB,01-701-1118,204,UREAN,Urea Nitrogen,CHEMISTRY,17,mg/dL,4,24,6.069,6.069,mmol/L,1.4,8.6,NORMAL,,10,WEEK 16,112,TREATMENT,2014-07-02T10:12,113
CDISCPILOT01,LB,01-701-1118,234,UREAN,Urea Nitrogen,CHEMISTRY,18,mg/dL,4,24,6.426,6.426,mmol/L,1.4,8.6,NORMAL,,11,WEEK 20,140,TREATMENT,2014-07-30T13:50,141
CDISCPILOT01,LB,01-701-1118,264,UREAN,Urea Nitrogen,CHEMISTRY,14,mg/dL,4,24,4.998,4.998,mmol/L,1.4,8.6,NORMAL,,12,WEEK 24,168,TREATMENT,2014-08-27T11:27,169
CDISCPILOT01,LB,01-701-1118,299,UREAN,Urea Nitrogen,CHEMISTRY,12,mg/dL,4,24,4.284,4.284,mmol/L,1.4,8.6,NORMAL,,13,WEEK 26,182,TREATMENT,2014-09-09T13:28,182
CDISCPILOT01,LB,01-701-1118,8,CA,Calcium,CHEMISTRY,9.1,mg/dL,8.4,10.3,2.27045,2.27045,mmol/L,2.1,2.57,NORMAL,Y,1,SCREENING 1,-7,SCREENING,2014-02-27T10:32,-13
CDISCPILOT01,LB,01-701-1118,45,CA,Calcium,CHEMISTRY,9.0,mg/dL,8.4,10.3,2.2455,2.2455,mmol/L,2.1,2.57,NORMAL,,4,WEEK 2,14,TREATMENT,2014-03-26T10:50,15
CDISCPILOT01,LB,01-701-1118,80,CA,Calcium,CHEMISTRY,9.3,mg/dL,8.4,10.3,2.32035,2.32035,mmol/L,2.1,2.57,NORMAL,,5,WEEK 4,28,TREATMENT,2014-04-09T11:01,29
CDISCPILOT01,LB,01-701-1118,110,CA,Calcium,CHEMISTRY,9.2,mg/dL,8.4,10.3,2.2954,2.2954,mmol/L,2.1,2.57,NORMAL,,7,WEEK 6,42,TREATMENT,2014-04-23T15:22,43
CDISCPILOT01,LB,01-701-1118,140,CA,Calcium,CHEMISTRY,8.6,mg/dL,8.4,10.3,2.1457,2.1457,mmol/L,2.1,2.57,NORMAL,,8,WEEK 8,56,TREATMENT,2014-05-08T09:30,58
CDISCPILOT01,LB,01-701-1118,170,CA,Calcium,CHEMISTRY,8.9,mg/dL,8.4,10.3,2.22055,2.22055,mmol/L,2.1,2.57,NORMAL,,9,WEEK 12,84,TREATMENT,2014-06-05T08:14,86
CDISCPILOT01,LB,01-701-1118,205,CA,Calcium,CHEMISTRY,9.2,mg/dL,8.4,10.3,2.2954,2.2954,mmol/L,2.1,2.57,NORMAL,,10,WEEK 16,112,TREATMENT,2014-07-02T10:12,113
CDISCPILOT01,LB,01-701-1118,235,CA,Calcium,CHEMISTRY,9.2,mg/dL,8.4,10.3,2.2954,2.2954,mmol/L,2.1,2.57,NORMAL,,11,WEEK 20,140,TREATMENT,2014-07-30T13:50,141
CDISCPILOT01,LB,01-701-1118,265,CA,Calcium,CHEMISTRY,9.2,mg/dL,8.4,10.3,2.2954,2.2954,mmol/L,2.1,2.57,NORMAL,,12,WEEK 24,168,TREATMENT,2014-08-27T11:27,169
CDISCPILOT01,LB,01-701-1118,300,CA,Calcium,CHEMISTRY,8.4,mg/dL,8.4,10.3,2.0958,2.0958,mmol/L,2.1,2.57,NORMAL,,13,WEEK 26,182,TREATMENT,2014-09-09T13:28,182
CDISCPILOT01,LB,01-701-1118,9,CHOL,Cholesterol,CHEMISTRY,178,mg/dL,149,286,4.60308,4.60308,mmol/L,3.85,7.4,NORMAL,Y,1,SCREENING 1,-7,SCREENING,2014-02-27T10:32,-13
CDISCPILOT01,LB,01-701-1118,46,CHOL,Cholesterol,CHEMISTRY,194,mg/dL,149,286,5.01684,5.01684,mmol/L,3.85,7.4,NORMAL,,4,WEEK 2,14,TREATMENT,2014-03-26T10:50,15
CDISCPILOT01,LB,01-701-1118,81,CHOL,Cholesterol,CHEMISTRY,176,mg/dL,149,286,4.55136,4.55136,mmol/L,3.85,7.4,NORMAL,,5,WEEK 4,28,TREATMENT,2014-04-09T11:01,29
CDISCPILOT01,LB,01-701-1118,111,CHOL,Cholesterol,CHEMISTRY,184,mg/dL,149,286,4.75824,4.75824,mmol/L,3.85,7.4,NORMAL,,7,WEEK 6,42,TREATMENT,2014-04-23T15:22,43
CDISCPILOT01,LB,01-701-1118,141,CHOL,Cholesterol,CHEMISTRY,204,mg/dL,149,286,5.27544,5.27544,mmol/L,3.85,7.4,NORMAL,,8,WEEK 8,56,TREATMENT,2014-05-08T09:30,58
CDISCPILOT01,LB,01-701-1118,171,CHOL,Cholesterol,CHEMISTRY,177,mg/dL,149,286,4.57722,4.57722,mmol/L,3.85,7.4,NORMAL,,9,WEEK 12,84,TREATMENT,2014-06-05T08:14,86
CDISCPILOT01,LB,01-701-1118,206,CHOL,Cholesterol,CHEMISTRY,188,mg/dL,149,286,4.86168,4.86168,mmol/L,3.85,7.4,NORMAL,,10,WEEK 16,112,TREATMENT,2014-07-02T10:12,113
CDISCPILOT01,LB,01-701-1118,236,CHOL,Cholesterol,CHEMISTRY,195,mg/dL,149,286,5.0427,5.0427,mmol/L,3.85,7.4,NORMAL,,11,WEEK 20,140,TREATMENT,2014-07-30T13:50,141
CDISCPILOT01,LB,01-701-1118,266,CHOL,Cholesterol,CHEMISTRY,186,mg/dL,149,286,4.80996,4.80996,mmol/L,3.85,7.4,NORMAL,,12,WEEK 24,168,TREATMENT,2014-08-27T11:27,169
CDISCPILOT01,LB,01-701-1118,301,CHOL,Cholesterol,CHEMISTRY,189,mg/dL,149,286,4.88754,4.88754,mmol/L,3.85,7.4,NORMAL,,13,WEEK 26,182,TREATMENT,2014-09-09T13:28,182
CDISCPILOT01,LB,01-701-1118,10,CK,Creatine Kinase,CHEMISTRY,110,U/L,22,198,110,110,U/L,22,198,NORMAL,Y,1,SCREENING 1,-7,SCREENING,2014-02-27T10:32,-13
CDISCPILOT01,LB,01-701-1118,47,CK,Creatine Kinase,CHEMISTRY,41,U/L,22,198,41,41,U/L,22,198,NORMAL,,4,WEEK 2,14,TREATMENT,2014-03-26T10:50,15
CDISCPILOT01,LB,01-701-1118,82,CK,Creatine Kinase,CHEMISTRY,49,U/L,22,198,49,49,U/L,22,198,NORMAL,,5,WEEK 4,28,TREATMENT,2014-04-09T11:01,29
CDISCPILOT01,LB,01-701-1118,112,CK,Creatine Kinase,CHEMISTRY,42,U/L,22,198,42,42,U/L,22,198,NORMAL,,7,WEEK 6,42,TREATMENT,2014-04-23T15:22,43
CDISCPILOT01,LB,01-701-1118,142,CK,Creatine Kinase,CHEMISTRY,49,U/L,22,198,49,49,U/L,22,198,NORMAL,,8,WEEK 8,56,TREATMENT,2014-05-08T09:30,58
CDISCPILOT01,LB,01-701-1118,172,CK,Creatine Kinase,CHEMISTRY,36,U/L,22,198,36,36,U/L,22,198,NORMAL,,9,WEEK 12,84,TREATMENT,2014-06-05T08:14,86
CDISCPILOT01,LB,01-701-1118,207,CK,Creatine Kinase,CHEMISTRY,88,U/L,22,198,88,88,U/L,22,198,NORMAL,,10,WEEK 16,112,TREATMENT,2014-07-02T10:12,113
CDISCPILOT01,LB,01-701-1118,237,CK,Creatine Kinase,CHEMISTRY,41,U/L,22,198,41,41,U/L,22,198,NORMAL,,11,WEEK 20,140,TREATMENT,2014-07-30T13:50,141
CDISCPILOT01,LB,01-701-1118,267,CK,Creatine Kinase,CHEMISTRY,36,U/L,22,198,36,36,U/L,22,198,NORMAL,,12,WEEK 24,168,TREATMENT,2014-08-27T11:27,169
CDISCPILOT01,LB,01-701-1118,302,CK,Creatine Kinase,CHEMISTRY,50,U/L,22,198,50,50,U/L,22,198,NORMAL,,13,WEEK 26,182,TREATMENT,2014-09-09T13:28,182
CDISCPILOT01,LB,01-701-1118,11,CL,Chloride,CHEMISTRY,108,mEq/L,94,112,108,108,mmol/L,94,112,NORMAL,Y,1,SCREENING 1,-7,SCREENING,2014-02-27T10:32,-13
CDISCPILOT01,LB,01-701-1118,48,CL,Chloride,CHEMISTRY,110,mEq/L,94,112,110,110,mmol/L,94,112,NORMAL,,4,WEEK 2,14,TREATMENT,2014-03-26T10:50,15
CDISCPILOT01,LB,01-701-1118,83,CL,Chloride,CHEMISTRY,100,mEq/L,94,112,100,100,mmol/L,94,112,NORMAL,,5,WEEK 4,28,TREATMENT,2014-04-09T11:01,29
CDISCPILOT01,LB,01-701-1118,113,CL,Chloride,CHEMISTRY,103,mEq/L,94,112,103,103,mmol/L,94,112,NORMAL,,7,WEEK 6,42,TREATMENT,2014-04-23T15:22,43
CDISCPILOT01,LB,01-701-1118,143,CL,Chloride,CHEMISTRY,104,mEq/L,94,112,104,104,mmol/L,94,112,NORMAL,,8,WEEK 8,56,TREATMENT,2014-05-08T09:30,58
CDISCPILOT01,LB,01-701-1118,173,CL,Chloride,CHEMISTRY,106,mEq/L,94,112,106,106,mmol/L,94,112,NORMAL,,9,WEEK 12,84,TREATMENT,2014-06-05T08:14,86
CDISCPILOT01,LB,01-701-1118,208,CL,Chloride,CHEMISTRY,106,mEq/L,94,112,106,106,mmol/L,94,112,NORMAL,,10,WEEK 16,112,TREATMENT,2014-07-02T10:12,113
CDISCPILOT01,LB,01-701-1118,238,CL,Chloride,CHEMISTRY,102,mEq/L,94,112,102,102,mmol/L,94,112,NORMAL,,11,WEEK 20,140,TREATMENT,2014-07-30T13:50,141
CDISCPILOT01,LB,01-701-1118,268,CL,Chloride,CHEMISTRY,105,mEq/L,94,112,105,105,mmol/L,94,112,NORMAL,,12,WEEK 24,168,TREATMENT,2014-08-27T11:27,169
CDISCPILOT01,LB,01-701-1118,303,CL,Chloride,CHEMISTRY,104,mEq/L,94,112,104,104,mmol/L,94,112,NORMAL,,13,WEEK 26,182,TREATMENT,2014-09-09T13:28,182
CDISCPILOT01,LB,01-701-1118,13,CREAT,Creatinine,CHEMISTRY,1.0,mg/dL,0.8,1.6,88.4,88.4,umol/L,71,141,NORMAL,Y,1,SCREENING 1,-7,SCREENING,2014-02-27T10:32,-13
CDISCPILOT01,LB,01-701-1118,50,CREAT,Creatinine,CHEMISTRY,1.0,mg/dL,0.8,1.6,88.4,88.4,umol/L,71,141,NORMAL,,4,WEEK 2,14,TREATMENT,2014-03-26T10:50,15
CDISCPILOT01,LB,01-701-1118,84,CREAT,Creatinine,CHEMISTRY,1.2,mg/dL,0.8,1.6,106.08,106.08,umol/L,71,141,NORMAL,,5,WEEK 4,28,TREATMENT,2014-04-09T11:01,29
CDISCPILOT01,LB,01-701-1118,114,CREAT,Creatinine,CHEMISTRY,1.1,mg/dL,0.8,1.6,97.24,97.24,umol/L,71,141,NORMAL,,7,WEEK 6,42,TREATMENT,2014-04-23T15:22,43
CDISCPILOT01,LB,01-701-1118,144,CREAT,Creatinine,CHEMISTRY,1.0,mg/dL,0.8,1.6,88.4,88.4,umol/L,71,141,NORMAL,,8,WEEK 8,56,TREATMENT,2014-05-08T09:30,58
CDISCPILOT01,LB,01-701-1118,175,CREAT,Creatinine,CHEMISTRY,1.2,mg/dL,0.8,1.6,106.08,106.08,umol/L,71,141,NORMAL,,9,WEEK 12,84,TREATMENT,2014-06-05T08:14,86
CDISCPILOT01,LB,01-701-1118,209,CREAT,Creatinine,CHEMISTRY,1.1,mg/dL,0.8,1.6,97.24,97.24,umol/L,71,141,NORMAL,,10,WEEK 16,112,TREATMENT,2014-07-02T10:12,113
CDISCPILOT01,LB,01-701-1118,239,CREAT,Creatinine,CHEMISTRY,1.2,mg/dL,0.8,1.6,106.08,106.08,umol/L,71,141,NORMAL,,11,WEEK 20,140,TREATMENT,2014-07-30T13:50,141
CDISCPILOT01,LB,01-701-1118,270,CREAT,Creatinine,CHEMISTRY,1.1,mg/dL,0.8,1.6,97.24,97.24,umol/L,71,141,NORMAL,,12,WEEK 24,168,TREATMENT,2014-08-27T11:27,169
CDISCPILOT01,LB,01-701-1118,304,CREAT,Creatinine,CHEMISTRY,1.1,mg/dL,0.8,1.6,97.24,97.24,umol/L,71,141,NORMAL,,13,WEEK 26,182,TREATMENT,2014-09-09T13:28,182
CDISCPILOT01,LB,01-701-1118,15,GGT,Gamma Glutamyl Transferase,CHEMISTRY,13,U/L,10,61,13,13,U/L,10,61,NORMAL,Y,1,SCREENING 1,-7,SCREENING,2014-02-27T10:32,-13
CDISCPILOT01,LB,01-701-1118,52,GGT,Gamma Glutamyl Transferase,CHEMISTRY,13,U/L,10,61,13,13,U/L,10,61,NORMAL,,4,WEEK 2,14,TREATMENT,2014-03-26T10:50,15
CDISCPILOT01,LB,01-701-1118,86,GGT,Gamma Glutamyl Transferase,CHEMISTRY,13,U/L,10,61,13,13,U/L,10,61,NORMAL,,5,WEEK 4,28,TREATMENT,2014-04-09T11:01,29
CDISCPILOT01,LB,01-701-1118,116,GGT,Gamma Glutamyl Transferase,CHEMISTRY,14,U/L,10,61,14,14,U/L,10,61,NORMAL,,7,WEEK 6,42,TREATMENT,2014-04-23T15:22,43
CDISCPILOT01,LB,01-701-1118,146,GGT,Gamma Glutamyl Transferase,CHEMISTRY,18,U/L,10,61,18,18,U/L,10,61,NORMAL,,8,WEEK 8,56,TREATMENT,2014-05-08T09:30,58
CDISCPILOT01,LB,01-701-1118,177,GGT,Gamma Glutamyl Transferase,CHEMISTRY,15,U/L,10,61,15,15,U/L,10,61,NORMAL,,9,WEEK 12,84,TREATMENT,2014-06-05T08:14,86
CDISCPILOT01,LB,01-701-1118,211,GGT,Gamma Glutamyl Transferase,CHEMISTRY,14,U/L,10,61,14,14,U/L,10,61,NORMAL,,10,WEEK 16,112,TREATMENT,2014-07-02T10:12,113
CDISCPILOT01,LB,01-701-1118,241,GGT,Gamma Glutamyl Transferase,CHEMISTRY,15,U/L,10,61,15,15,U/L,10,61,NORMAL,,11,WEEK 20,140,TREATMENT,2014-07-30T13:50,141
CDISCPILOT01,LB,01-701-1118,272,GGT,Gamma Glutamyl Transferase,CHEMISTRY,15,U/L,10,61,15,15,U/L,10,61,NORMAL,,12,WEEK 24,168,TREATMENT,2014-08-27T11:27,169
CDISCPILOT01,LB,01-701-1118,306,GGT,Gamma Glutamyl Transferase,CHEMISTRY,16,U/L,10,61,16,16,U/L,10,61,NORMAL,,13,WEEK 26,182,TREATMENT,2014-09-09T13:28,182
CDISCPILOT01,LB,01-701-1118,16,GLUC,Glucose,CHEMISTRY,73,mg/dL,50,250,4.05223,4.05223,mmol/L,2.8,13.9,NORMAL,Y,1,SCREENING 1,-7,SCREENING,2014-02-27T10:32,-13
CDISCPILOT01,LB,01-701-1118,53,GLUC,Glucose,CHEMISTRY,88,mg/dL,50,250,4.88488,4.88488,mmol/L,2.8,13.9,NORMAL,,4,WEEK 2,14,TREATMENT,2014-03-26T10:50,15
CDISCPILOT01,LB,01-701-1118,87,GLUC,Glucose,CHEMISTRY,92,mg/dL,50,250,5.10692,5.10692,mmol/L,2.8,13.9,NORMAL,,5,WEEK 4,28,TREATMENT,2014-04-09T11:01,29
CDISCPILOT01,LB,01-701-1118,117,GLUC,Glucose,CHEMISTRY,94,mg/dL,50,250,5.21794,5.21794,mmol/L,2.8,13.9,NORMAL,,7,WEEK 6,42,TREATMENT,2014-04-23T15:22,43
CDISCPILOT01,LB,01-701-1118,147,GLUC,Glucose,CHEMISTRY,69,mg/dL,50,250,3.83019,3.83019,mmol/L,2.8,13.9,NORMAL,,8,WEEK 8,56,TREATMENT,2014-05-08T09:30,58
CDISCPILOT01,LB,01-701-1118,178,GLUC,Glucose,CHEMISTRY,106,mg/dL,50,250,5.88406,5.88406,mmol/L,2.8,13.9,NORMAL,,9,WEEK 12,84,TREATMENT,2014-06-05T08:14,86
CDISCPILOT01,LB,01-701-1118,212,GLUC,Glucose,CHEMISTRY,87,mg/dL,50,250,4.82937,4.82937,mmol/L,2.8,13.9,NORMAL,,10,WEEK 16,112,TREATMENT,2014-07-02T10:12,113
CDISCPILOT01,LB,01-701-1118,242,GLUC,Glucose,CHEMISTRY,93,mg/dL,50,250,5.16243,5.16243,mmol/L,2.8,13.9,NORMAL,,11,WEEK 20,140,TREATMENT,2014-07-30T13:50,141
CDISCPILOT01,LB,01-701-1118,273,GLUC,Glucose,CHEMISTRY,92,mg/dL,50,250,5.10692,5.10692,mmol/L,2.8,13.9,NORMAL,,12,WEEK 24,168,TREATMENT,2014-08-27T11:27,169
CDISCPILOT01,LB,01-701-1118,307,GLUC,Glucose,CHEMISTRY,89,mg/dL,50,250,4.94039,4.94039,mmol/L,2.8,13.9,NORMAL,,13,WEEK 26,182,TREATMENT,2014-09-09T13:28,182
CDISCPILOT01,LB,01-701-1118,19,K,Potassium,CHEMISTRY,4.7,mEq/L,3.4,5.4,4.7,4.7,mmol/L,3.4,5.4,NORMAL,Y,1,SCREENING 1,-7,SCREENING,2014-02-27T10:32,-13
CDISCPILOT01,LB,01-701-1118,56,K,Potassium,CHEMISTRY,4.6,mEq/L,3.4,5.4,4.6,4.6,mmol/L,3.4,5.4,NORMAL,,4,WEEK 2,14,TREATMENT,2014-03-26T10:50,15
CDISCPILOT01,LB,01-701-1118,90,K,Potassium,CHEMISTRY,4.7,mEq/L,3.4,5.4,4.7,4.7,mmol/L,3.4,5.4,NORMAL,,5,WEEK 4,28,TREATMENT,2014-04-09T11:01,29
CDISCPILOT01,LB,01-701-1118,120,K,Potassium,CHEMISTRY,4.8,mEq/L,3.4,5.4,4.8,4.8,mmol/L,3.4,5.4,NORMAL,,7,WEEK 6,42,TREATMENT,2014-04-23T15:22,43
CDISCPILOT01,LB,01-701-1118,150,K,Potassium,CHEMISTRY,4.3,mEq/L,3.4,5.4,4.3,4.3,mmol/L,3.4,5.4,NORMAL,,8,WEEK 8,56,TREATMENT,2014-05-08T09:30,58
CDISCPILOT01,LB,01-701-1118,181,K,Potassium,CHEMISTRY,4.2,mEq/L,3.4,5.4,4.2,4.2,mmol/L,3.4,5.4,NORMAL,,9,WEEK 12,84,TREATMENT,2014-06-05T08:14,86
CDISCPILOT01,LB,01-701-1118,215,K,Potassium,CHEMISTRY,4.5,mEq/L,3.4,5.4,4.5,4.5,mmol/L,3.4,5.4,NORMAL,,10,WEEK 16,112,TREATMENT,2014-07-02T10:12,113
CDISCPILOT01,LB,01-701-1118,245,K,Potassium,CHEMISTRY,4.2,mEq/L,3.4,5.4,4.2,4.2,mmol/L,3.4,5.4,NORMAL,,11,WEEK 20,140,TREATMENT,2014-07-30T13:50,141
CDISCPILOT01,LB,01-701-1118,276,K,Potassium,CHEMISTRY,4.6,mEq/L,3.4,5.4,4.6,4.6,mmol/L,3.4,5.4,NORMAL,,12,WEEK 24,168,TREATMENT,2014-08-27T11:27,169
CDISCPILOT01,LB,01-701-1118,310,K,Potassium,CHEMISTRY,4.1,mEq/L,3.4,5.4,4.1,4.1,mmol/L,3.4,5.4,NORMAL,,13,WEEK 26,182,TREATMENT,2014-09-09T13:28,182
CDISCPILOT01,LB,01-701-1118,26,SODIUM,Sodium,CHEMISTRY,141,mEq/L,132,147,141,141,mmol/L,132,147,NORMAL,Y,1,SCREENING 1,-7,SCREENING,2014-02-27T10:32,-13
CDISCPILOT01,LB,01-701-1118,63,SODIUM,Sodium,CHEMISTRY,142,mEq/L,132,147,142,142,mmol/L,132,147,NORMAL,,4,WEEK 2,14,TREATMENT,2014-03-26T10:50,15
CDISCPILOT01,LB,01-701-1118,96,SODIUM,Sodium,CHEMISTRY,134,mEq/L,132,147,134,134,mmol/L,132,147,NORMAL,,5,WEEK 4,28,TREATMENT,2014-04-09T11:01,29
CDISCPILOT01,LB,01-701-1118,126,SODIUM,Sodium,CHEMISTRY,139,mEq/L,132,147,139,139,mmol/L,132,147,NORMAL,,7,WEEK 6,42,TREATMENT,2014-04-23T15:22,43
CDISCPILOT01,LB,01-701-1118,156,SODIUM,Sodium,CHEMISTRY,139,mEq/L,132,147,139,139,mmol/L,132,147,NORMAL,,8,WEEK 8,56,TREATMENT,2014-05-08T09:30,58
CDISCPILOT01,LB,01-701-1118,188,SODIUM,Sodium,CHEMISTRY,142,mEq/L,132,147,142,142,mmol/L,132,147,NORMAL,,9,WEEK 12,84,TREATMENT,2014-06-05T08:14,86
CDISCPILOT01,LB,01-701-1118,221,SODIUM,Sodium,CHEMISTRY,141,mEq/L,132,147,141,141,mmol/L,132,147,NORMAL,,10,WEEK 16,112,TREATMENT,2014-07-02T10:12,113
CDISCPILOT01,LB,01-701-1118,251,SODIUM,Sodium,CHEMISTRY,139,mEq/L,132,147,139,139,mmol/L,132,147,NORMAL,,11,WEEK 20,140,TREATMENT,2014-07-30T13:50,141
CDISCPILOT01,LB,01-701-1118,283,SODIUM,Sodium,CHEMISTRY,142,mEq/L,132,147,142,142,mmol/L,132,147,NORMAL,,12,WEEK 24,168,TREATMENT,2014-08-27T11:27,169
CDISCPILOT01,LB,01-701-1118,316,SODIUM,Sodium,CHEMISTRY,139,mEq/L,132,147,139,139,mmol/L,132,147,NORMAL,,13,WEEK 26,182,TREATMENT,2014-09-09T13:28,182
CDISCPILOT01,LB,01-701-1118,28,PHOS,Phosphate,CHEMISTRY,3.9,mg/dL,2.2,5.1,1.25931,1.25931,mmol/L,0.71,1.65,NORMAL,Y,1,SCREENING 1,-7,SCREENING,2014-02-27T10:32,-13
CDISCPILOT01,LB,01-701-1118,65,PHOS,Phosphate,CHEMISTRY,4.1,mg/dL,2.2,5.1,1.32389,1.32389,mmol/L,0.71,1.65,NORMAL,,4,WEEK 2,14,TREATMENT,2014-03-26T10:50,15
CDISCPILOT01,LB,01-701-1118,97,PHOS,Phosphate,CHEMISTRY,4.0,mg/dL,2.2,5.1,1.2916,1.2916,mmol/L,0.71,1.65,NORMAL,,5,WEEK 4,28,TREATMENT,2014-04-09T11:01,29
CDISCPILOT01,LB,01-701-1118,127,PHOS,Phosphate,CHEMISTRY,4.1,mg/dL,2.2,5.1,1.32389,1.32389,mmol/L,0.71,1.65,NORMAL,,7,WEEK 6,42,TREATMENT,2014-04-23T15:22,43
CDISCPILOT01,LB,01-701-1118,157,PHOS,Phosphate,CHEMISTRY,3.3,mg/dL,2.2,5.1,1.06557,1.06557,mmol/L,0.71,1.65,NORMAL,,8,WEEK 8,56,TREATMENT,2014-05-08T09:30,58
CDISCPILOT01,LB,01-701-1118,190,PHOS,Phosphate,CHEMISTRY,3.0,mg/dL,2.2,5.1,0.9687,0.9687,mmol/L,0.71,1.65,NORMAL,,9,WEEK 12,84,TREATMENT,2014-06-05T08:14,86
CDISCPILOT01,LB,01-701-1118,222,PHOS,Phosphate,CHEMISTRY,3.5,mg/dL,2.2,5.1,1.13015,1.13015,mmol/L,0.71,1.65,NORMAL,,10,WEEK 16,112,TREATMENT,2014-07-02T10:12,113
CDISCPILOT01,LB,01-701-1118,252,PHOS,Phosphate,CHEMISTRY,4.3,mg/dL,2.2,5.1,1.38847,1.38847,mmol/L,0.71,1.65,NORMAL,,11,WEEK 20,140,TREATMENT,2014-07-30T13:50,141
CDISCPILOT01,LB,01-701-1118,285,PHOS,Phosphate,CHEMISTRY,4.2,mg/dL,2.2,5.1,1.35618,1.35618,mmol/L,0.71,1.65,NORMAL,,12,WEEK 24,168,TREATMENT,2014-08-27T11:27,169
CDISCPILOT01,LB,01-701-1118,317,PHOS,Phosphate,CHEMISTRY,4.6,mg/dL,2.2,5.1,1.48534,1.48534,mmol/L,0.71,1.65,NORMAL,,13,WEEK 26,182,TREATMENT,2014-09-09T13:28,182
CDISCPILOT01,LB,01-701-1118,30,PROT,Protein,CHEMISTRY,7.0,g/dL,6.1,8.4,70,70,g/L,61,84,NORMAL,Y,1,SCREENING 1,-7,SCREENING,2014-02-27T10:32,-13
CDISCPILOT01,LB,01-701-1118,67,PROT,Protein,CHEMISTRY,7.1,g/dL,6.1,8.4,71,71,g/L,61,84,NORMAL,,4,WEEK 2,14,TREATMENT,2014-03-26T10:50,15
CDISCPILOT01,LB,01-701-1118,99,PROT,Protein,CHEMISTRY,7.4,g/dL,6.1,8.4,74,74,g/L,61,84,NORMAL,,5,WEEK 4,28,TREATMENT,2014-04-09T11:01,29
CDISCPILOT01,LB,01-701-1118,129,PROT,Protein,CHEMISTRY,7.0,g/dL,6.1,8.4,70,70,g/L,61,84,NORMAL,,7,WEEK 6,42,TREATMENT,2014-04-23T15:22,43
CDISCPILOT01,LB,01-701-1118,159,PROT,Protein,CHEMISTRY,7.2,g/dL,6.1,8.4,72,72,g/L,61,84,NORMAL,,8,WEEK 8,56,TREATMENT,2014-05-08T09:30,58
CDISCPILOT01,LB,01-701-1118,192,PROT,Protein,CHEMISTRY,7.2,g/dL,6.1,8.4,72,72,g/L,61,84,NORMAL,,9,WEEK 12,84,TREATMENT,2014-06-05T08:14,86
CDISCPILOT01,LB,01-701-1118,224,PROT,Protein,CHEMISTRY,7.2,g/dL,6.1,8.4,72,72,g/L,61,84,NORMAL,,10,WEEK 16,112,TREATMENT,2014-07-02T10:12,113
CDISCPILOT01,LB,01-701-1118,254,PROT,Protein,CHEMISTRY,7.1,g/dL,6.1,8.4,71,71,g/L,61,84,NORMAL,,11,WEEK 20,140,TREATMENT,2014-07-30T13:50,141
CDISCPILOT01,LB,01-701-1118,287,PROT,Protein,CHEMISTRY,6.8,g/dL,6.1,8.4,68,68,g/L,61,84,NORMAL,,12,WEEK 24,168,TREATMENT,2014-08-27T11:27,169
CDISCPILOT01,LB,01-701-1118,319,PROT,Protein,CHEMISTRY,6.7,g/dL,6.1,8.4,67,67,g/L,61,84,NORMAL,,13,WEEK 26,182,TREATMENT,2014-09-09T13:28,182
CDISCPILOT01,LB,01-701-1118,34,URATE,Urate,CHEMISTRY,4.2,mg/dL,3.3,7.5,249.816,249.816,umol/L,196,446,NORMAL,Y,1,SCREENING 1,-7,SCREENING,2014-02-27T10:32,-13
CDISCPILOT01,LB,01-701-1118,70,URATE,Urate,CHEMISTRY,4.7,mg/dL,3.3,7.5,279.556,279.556,umol/L,196,446,NORMAL,,4,WEEK 2,14,TREATMENT,2014-03-26T10:50,15
CDISCPILOT01,LB,01-701-1118,101,URATE,Urate,CHEMISTRY,4.1,mg/dL,3.3,7.5,243.868,243.868,umol/L,196,446,NORMAL,,5,WEEK 4,28,TREATMENT,2014-04-09T11:01,29
CDISCPILOT01,LB,01-701-1118,131,URATE,Urate,CHEMISTRY,4.0,mg/dL,3.3,7.5,237.92,237.92,umol/L,196,446,NORMAL,,7,WEEK 6,42,TREATMENT,2014-04-23T15:22,43
CDISCPILOT01,LB,01-701-1118,161,URATE,Urate,CHEMISTRY,4.6,mg/dL,3.3,7.5,273.608,273.608,umol/L,196,446,NORMAL,,8,WEEK 8,56,TREATMENT,2014-05-08T09:30,58
CDISCPILOT01,LB,01-701-1118,195,URATE,Urate,CHEMISTRY,3.8,mg/dL,3.3,7.5,226.024,226.024,umol/L,196,446,NORMAL,,9,WEEK 12,84,TREATMENT,2014-06-05T08:14,86
CDISCPILOT01,LB,01-701-1118,226,URATE,Urate,CHEMISTRY,4.2,mg/dL,3.3,7.5,249.816,249.816,umol/L,196,446,NORMAL,,10,WEEK 16,112,TREATMENT,2014-07-02T10:12,113
CDISCPILOT01,LB,01-701-1118,256,URATE,Urate,CHEMISTRY,5.0,mg/dL,3.3,7.5,297.4,297.4,umol/L,196,446,NORMAL,,11,WEEK 20,140,TREATMENT,2014-07-30T13:50,141
CDISCPILOT01,LB,01-701-1118,290,URATE,Urate,CHEMISTRY,4.2,mg/dL,3.3,7.5,249.816,249.816,umol/L,196,446,NORMAL,,12,WEEK 24,168,TREATMENT,2014-08-27T11:27,169
CDISCPILOT01,LB,01-701-1118,321,URATE,Urate,CHEMISTRY,5.2,mg/dL,3.3,7.5,309.296,309.296,umol/L,196,446,NORMAL,,13,WEEK 26,182,TREATMENT,2014-09-09T13:28,182
CDISCPILOT01,LB,01-701-1130,1,ALB,Albumin,CHEMISTRY,3.7,g/dL,3.5,4.6,37,37,g/L,35,46,NORMAL,Y,1,SCREENING 1,-7,SCREENING,2014-02-09T12:01,-6
CDISCPILOT01,LB,01-701-1130,38,ALB,Albumin,CHEMISTRY,3.8,g/dL,3.5,4.6,38,38,g/L,35,46,NORMAL,,4,WEEK 2,14,TREATMENT,2014-03-01T08:30,15
CDISCPILOT01,LB,01-701-1130,73,ALB,Albumin,CHEMISTRY,3.3,g/dL,3.5,4.6,33,33,g/L,35,46,LOW,,5,WEEK 4,28,TREATMENT,2014-03-15T13:07,29
CDISCPILOT01,LB,01-701-1130,103,ALB,Albumin,CHEMISTRY,3.6,g/dL,3.5,4.6,36,36,g/L,35,46,NORMAL,,7,WEEK 6,42,TREATMENT,2014-03-29T09:40,43
CDISCPILOT01,LB,01-701-1130,133,ALB,Albumin,CHEMISTRY,3.6,g/dL,3.5,4.6,36,36,g/L,35,46,NORMAL,,8,WEEK 8,56,TREATMENT,2014-04-12T12:35,57
CDISCPILOT01,LB,01-701-1130,163,ALB,Albumin,CHEMISTRY,3.7,g/dL,3.5,4.6,37,37,g/L,35,46,NORMAL,,9,WEEK 12,84,TREATMENT,2014-05-16T11:37,91
CDISCPILOT01,LB,01-701-1130,198,ALB,Albumin,CHEMISTRY,3.9,g/dL,3.5,4.6,39,39,g/L,35,46,NORMAL,,10,WEEK 16,112,TREATMENT,2014-06-07T13:20,113
CDISCPILOT01,LB,01-701-1130,228,ALB,Albumin,CHEMISTRY,3.4,g/dL,3.5,4.6,34,34,g/L,35,46,LOW,,11,WEEK 20,140,TREATMENT,2014-07-02T15:03,138
CDISCPILOT01,LB,01-701-1130,258,ALB,Albumin,CHEMISTRY,3.8,g/dL,3.5,4.6,38,38,g/L,35,46,NORMAL,,12,WEEK 24,168,TREATMENT,2014-08-02T13:50,169
CDISCPILOT01,LB,01-701-1130,293,ALB,Albumin,CHEMISTRY,3.9,g/dL,3.5,4.6,39,39,g/L,35,46,NORMAL,,13,WEEK 26,182,TREATMENT,2014-08-16T13:10,183
CDISCPILOT01,LB,01-701-1130,2,ALP,Alkaline Phosphatase,CHEMISTRY,61,U/L,35,115,61,61,U/L,35,115,NORMAL,Y,1,SCREENING 1,-7,SCREENING,2014-02-09T12:01,-6
CDISCPILOT01,LB,01-701-1130,39,ALP,Alkaline Phosphatase,CHEMISTRY,61,U/L,35,115,61,61,U/L,35,115,NORMAL,,4,WEEK 2,14,TREATMENT,2014-03-01T08:30,15
CDISCPILOT01,LB,01-701-1130,74,ALP,Alkaline Phosphatase,CHEMISTRY,68,U/L,35,115,68,68,U/L,35,115,NORMAL,,5,WEEK 4,28,TREATMENT,2014-03-15T13:07,29
CDISCPILOT01,LB,01-701-1130,104,ALP,Alkaline Phosphatase,CHEMISTRY,63,U/L,35,115,63,63,U/L,35,115,NORMAL,,7,WEEK 6,42,TREATMENT,2014-03-29T09:40,43
CDISCPILOT01,LB,01-701-1130,134,ALP,Alkaline Phosphatase,CHEMISTRY,58,U/L,35,115,58,58,U/L,35,115,NORMAL,,8,WEEK 8,56,TREATMENT,2014-04-12T12:35,57
CDISCPILOT01,LB,01-701-1130,164,ALP,Alkaline Phosphatase,CHEMISTRY,63,U/L,35,115,63,63,U/L,35,115,NORMAL,,9,WEEK 12,84,TREATMENT,2014-05-16T11:37,91
CDISCPILOT01,LB,01-701-1130,199,ALP,Alkaline Phosphatase,CHEMISTRY,65,U/L,35,115,65,65,U/L,35,115,NORMAL,,10,WEEK 16,112,TREATMENT,2014-06-07T13:20,113
CDISCPILOT01,LB,01-701-1130,229,ALP,Alkaline Phosphatase,CHEMISTRY,62,U/L,35,115,62,62,U/L,35,115,NORMAL,,11,WEEK 20,140,TREATMENT,2014-07-02T15:03,138
CDISCPILOT01,LB,01-701-1130,259,ALP,Alkaline Phosphatase,CHEMISTRY,65,U/L,35,115,65,65,U/L,35,115,NORMAL,,12,WEEK 24,168,TREATMENT,2014-08-02T13:50,169
CDISCPILOT01,LB,01-701-1130,294,ALP,Alkaline Phosphatase,CHEMISTRY,67,U/L,35,115,67,67,U/L,35,115,NORMAL,,13,WEEK 26,182,TREATMENT,2014-08-16T13:10,183
CDISCPILOT01,LB,01-701-1130,3,ALT,Alanine Aminotransferase,CHEMISTRY,15,U/L,6,35,15,15,U/L,6,35,NORMAL,Y,1,SCREENING 1,-7,SCREENING,2014-02-09T12:01,-6
CDISCPILOT01,LB,01-701-1130,40,ALT,Alanine Aminotransferase,CHEMISTRY,14,U/L,6,35,14,14,U/L,6,35,NORMAL,,4,WEEK 2,14,TREATMENT,2014-03-01T08:30,15
CDISCPILOT01,LB,01-701-1130,75,ALT,Alanine Aminotransferase,CHEMISTRY,18,U/L,6,35,18,18,U/L,6,35,NORMAL,,5,WEEK 4,28,TREATMENT,2014-03-15T13:07,29
CDISCPILOT01,LB,01-701-1130,105,ALT,Alanine Aminotransferase,CHEMISTRY,13,U/L,6,35,13,13,U/L,6,35,NORMAL,,7,WEEK 6,42,TREATMENT,2014-03-29T09:40,43
CDISCPILOT01,LB,01-701-1130,135,ALT,Alanine Aminotransferase,CHEMISTRY,10,U/L,6,35,10,10,U/L,6,35,NORMAL,,8,WEEK 8,56,TREATMENT,2014-04-12T12:35,57
CDISCPILOT01,LB,01-701-1130,165,ALT,Alanine Aminotransferase,CHEMISTRY,13,U/L,6,35,13,13,U/L,6,35,NORMAL,,9,WEEK 12,84,TREATMENT,2014-05-16T11:37,91
CDISCPILOT01,LB,01-701-1130,200,ALT,Alanine Aminotransferase,CHEMISTRY,12,U/L,6,35,12,12,U/L,6,35,NORMAL,,10,WEEK 16,112,TREATMENT,2014-06-07T13:20,113
CDISCPILOT01,LB,01-701-1130,230,ALT,Alanine Aminotransferase,CHEMISTRY,11,U/L,6,35,11,11,U/L,6,35,NORMAL,,11,WEEK 20,140,TREATMENT,2014-07-02T15:03,138
CDISCPILOT01,LB,01-701-1130,260,ALT,Alanine Aminotransferase,CHEMISTRY,13,U/L,6,35,13,13,U/L,6,35,NORMAL,,12,WEEK 24,168,TREATMENT,2014-08-02T13:50,169
CDISCPILOT01,LB,01-701-1130,295,ALT,Alanine Aminotransferase,CHEMISTRY,10,U/L,6,35,10,10,U/L,6,35,NORMAL,,13,WEEK 26,182,TREATMENT,2014-08-16T13:10,183
CDISCPILOT01,LB,01-701-1130,4,AST,Aspartate Aminotransferase,CHEMISTRY,24,U/L,11,36,24,24,U/L,11,36,NORMAL,Y,1,SCREENING 1,-7,SCREENING,2014-02-09T12:01,-6
CDISCPILOT01,LB,01-701-1130,41,AST,Aspartate Aminotransferase,CHEMISTRY,26,U/L,11,36,26,26,U/L,11,36,NORMAL,,4,WEEK 2,14,TREATMENT,2014-03-01T08:30,15
CDISCPILOT01,LB,01-701-1130,76,AST,Aspartate Aminotransferase,CHEMISTRY,25,U/L,11,36,25,25,U/L,11,36,NORMAL,,5,WEEK 4,28,TREATMENT,2014-03-15T13:07,29
CDISCPILOT01,LB,01-701-1130,106,AST,Aspartate Aminotransferase,CHEMISTRY,19,U/L,11,36,19,19,U/L,11,36,NORMAL,,7,WEEK 6,42,TREATMENT,2014-03-29T09:40,43
CDISCPILOT01,LB,01-701-1130,136,AST,Aspartate Aminotransferase,CHEMISTRY,18,U/L,11,36,18,18,U/L,11,36,NORMAL,,8,WEEK 8,56,TREATMENT,2014-04-12T12:35,57
CDISCPILOT01,LB,01-701-1130,166,AST,Aspartate Aminotransferase,CHEMISTRY,21,U/L,11,36,21,21,U/L,11,36,NORMAL,,9,WEEK 12,84,TREATMENT,2014-05-16T11:37,91
CDISCPILOT01,LB,01-701-1130,201,AST,Aspartate Aminotransferase,CHEMISTRY,19,U/L,11,36,19,19,U/L,11,36,NORMAL,,10,WEEK 16,112,TREATMENT,2014-06-07T13:20,113
CDISCPILOT01,LB,01-701-1130,231,AST,Aspartate Aminotransferase,CHEMISTRY,19,U/L,11,36,19,19,U/L,11,36,NORMAL,,11,WEEK 20,140,TREATMENT,2014-07-02T15:03,138
CDISCPILOT01,LB,01-701-1130,261,AST,Aspartate Aminotransferase,CHEMISTRY,22,U/L,11,36,22,22,U/L,11,36,NORMAL,,12,WEEK 24,168,TREATMENT,2014-08-02T13:50,169
CDISCPILOT01,LB,01-701-1130,296,AST,Aspartate Aminotransferase,CHEMISTRY,19,U/L,11,36,19,19,U/L,11,36,NORMAL,,13,WEEK 26,182,TREATMENT,2014-08-16T13:10,183
CDISCPILOT01,LB,01-701-1130,6,BILI,Bilirubin,CHEMISTRY,0.5,mg/dL,0.2,1.2,8.55,8.55,umol/L,3,21,NORMAL,Y,1,SCREENING 1,-7,SCREENING,2014-02-09T12:01,-6
CDISCPILOT01,LB,01-701-1130,43,BILI,Bilirubin,CHEMISTRY,0.6,mg/dL,0.2,1.2,10.26,10.26,umol/L,3,21,NORMAL,,4,WEEK 2,14,TREATMENT,2014-03-01T08:30,15
CDISCPILOT01,LB,01-701-1130,78,BILI,Bilirubin,CHEMISTRY,0.3,mg/dL,0.2,1.2,5.13,5.13,umol/L,3,21,NORMAL,,5,WEEK 4,28,TREATMENT,2014-03-15T13:07,29
CDISCPILOT01,LB,01-701-1130,108,BILI,Bilirubin,CHEMISTRY,0.4,mg/dL,0.2,1.2,6.84,6.84,umol/L,3,21,NORMAL,,7,WEEK 6,42,TREATMENT,2014-03-29T09:40,43
CDISCPILOT01,LB,01-701-1130,138,BILI,Bilirubin,CHEMISTRY,0.6,mg/dL,0.2,1.2,10.26,10.26,umol/L,3,21,NORMAL,,8,WEEK 8,56,TREATMENT,2014-04-12T12:35,57
CDISCPILOT01,LB,01-701-1130,168,BILI,Bilirubin,CHEMISTRY,0.5,mg/dL,0.2,1.2,8.55,8.55,umol/L,3,21,NORMAL,,9,WEEK 12,84,TREATMENT,2014-05-16T11:37,91
CDISCPILOT01,LB,01-701-1130,203,BILI,Bilirubin,CHEMISTRY,0.6,mg/dL,0.2,1.2,10.26,10.26,umol/L,3,21,NORMAL,,10,WEEK 16,112,TREATMENT,2014-06-07T13:20,113
CDISCPILOT01,LB,01-701-1130,233,BILI,Bilirubin,CHEMISTRY,0.4,mg/dL,0.2,1.2,6.84,6.84,umol/L,3,21,NORMAL,,11,WEEK 20,140,TREATMENT,2014-07-02T15:03,138
CDISCPILOT01,LB,01-701-1130,263,BILI,Bilirubin,CHEMISTRY,0.7,mg/dL,0.2,1.2,11.97,11.97,umol/L,3,21,NORMAL,,12,WEEK 24,168,TREATMENT,2014-08-02T13:50,169
CDISCPILOT01,LB,01-701-1130,298,BILI,Bilirubin,CHEMISTRY,0.6,mg/dL,0.2,1.2,10.26,10.26,umol/L,3,21,NORMAL,,13,WEEK 26,182,TREATMENT,2014-08-16T13:10,183
CDISCPILOT01,LB,01-701-1130,7,UREAN,Urea Nitrogen,CHEMISTRY,20,mg/dL,4,24,7.14,7.14,mmol/L,1.4,8.6,NORMAL,Y,1,SCREENING 1,-7,SCREENING,2014-02-09T12:01,-6
CDISCPILOT01,LB,01-701-1130,44,UREAN,Urea Nitrogen,CHEMISTRY,20,mg/dL,4,24,7.14,7.14,mmol/L,1.4,8.6,NORMAL,,4,WEEK 2,14,TREATMENT,2014-03-01T08:30,15
CDISCPILOT01,LB,01-701-1130,79,UREAN,Urea Nitrogen,CHEMISTRY,26,mg/dL,4,24,9.282,9.282,mmol/L,1.4,8.6,HIGH,,5,WEEK 4,28,TREATMENT,2014-03-15T13:07,29
CDISCPILOT01,LB,01-701-1130,109,UREAN,Urea Nitrogen,CHEMISTRY,18,mg/dL,4,24,6.426,6.426,mmol/L,1.4,8.6,NORMAL,,7,WEEK 6,42,TREATMENT,2014-03-29T09:40,43
CDISCPILOT01,LB,01-701-1130,139,UREAN,Urea Nitrogen,CHEMISTRY,20,mg/dL,4,24,7.14,7.14,mmol/L,1.4,8.6,NORMAL,,8,WEEK 8,56,TREATMENT,2014-04-12T12:35,57
CDISCPILOT01,LB,01-701-1130,169,UREAN,Urea Nitrogen,CHEMISTRY,25,mg/dL,4,24,8.925,8.925,mmol/L,1.4,8.6,HIGH,,9,WEEK 12,84,TREATMENT,2014-05-16T11:37,91
CDISCPILOT01,LB,01-701-1130,204,UREAN,Urea Nitrogen,CHEMISTRY,19,mg/dL,4,24,6.783,6.783,mmol/L,1.4,8.6,NORMAL,,10,WEEK 16,112,TREATMENT,2014-06-07T13:20,113
CDISCPILOT01,LB,01-701-1130,234,UREAN,Urea Nitrogen,CHEMISTRY,21,mg/dL,4,24,7.497,7.497,mmol/L,1.4,8.6,NORMAL,,11,WEEK 20,140,TREATMENT,2014-07-02T15:03,138
CDISCPILOT01,LB,01-701-1130,264,UREAN,Urea Nitrogen,CHEMISTRY,20,mg/dL,4,24,7.14,7.14,mmol/L,1.4,8.6,NORMAL,,12,WEEK 24,168,TREATMENT,2014-08-02T13:50,169
CDISCPILOT01,LB,01-701-1130,299,UREAN,Urea Nitrogen,CHEMISTRY,18,mg/dL,4,24,6.426,6.426,mmol/L,1.4,8.6,NORMAL,,13,WEEK 26,182,TREATMENT,2014-08-16T13:10,183
CDISCPILOT01,LB,01-701-1130,8,CA,Calcium,CHEMISTRY,8.5,mg/dL,8.4,10.3,2.12075,2.12075,mmol/L,2.1,2.57,NORMAL,Y,1,SCREENING 1,-7,SCREENING,2014-02-09T12:01,-6
CDISCPILOT01,LB,01-701-1130,45,CA,Calcium,CHEMISTRY,9.1,mg/dL,8.4,10.3,2.27045,2.27045,mmol/L,2.1,2.57,NORMAL,,4,WEEK 2,14,TREATMENT,2014-03-01T08:30,15
CDISCPILOT01,LB,01-701-1130,80,CA,Calcium,CHEMISTRY,8.9,mg/dL,8.4,10.3,2.22055,2.22055,mmol/L,2.1,2.57,NORMAL,,5,WEEK 4,28,TREATMENT,2014-03-15T13:07,29
CDISCPILOT01,LB,01-701-1130,110,CA,Calcium,CHEMISTRY,8.9,mg/dL,8.4,10.3,2.22055,2.22055,mmol/L,2.1,2.57,NORMAL,,7,WEEK 6,42,TREATMENT,2014-03-29T09:40,43
CDISCPILOT01,LB,01-701-1130,140,CA,Calcium,CHEMISTRY,8.8,mg/dL,8.4,10.3,2.1956,2.1956,mmol/L,2.1,2.57,NORMAL,,8,WEEK 8,56,TREATMENT,2014-04-12T12:35,57
CDISCPILOT01,LB,01-701-1130,170,CA,Calcium,CHEMISTRY,8.7,mg/dL,8.4,10.3,2.17065,2.17065,mmol/L,2.1,2.57,NORMAL,,9,WEEK 12,84,TREATMENT,2014-05-16T11:37,91
CDISCPILOT01,LB,01-701-1130,205,CA,Calcium,CHEMISTRY,9.3,mg/dL,8.4,10.3,2.32035,2.32035,mmol/L,2.1,2.57,NORMAL,,10,WEEK 16,112,TREATMENT,2014-06-07T13:20,113
CDISCPILOT01,LB,01-701-1130,235,CA,Calcium,CHEMISTRY,8.9,mg/dL,8.4,10.3,2.22055,2.22055,mmol/L,2.1,2.57,NORMAL,,11,WEEK 20,140,TREATMENT,2014-07-02T15:03,138
CDISCPILOT01,LB,01-701-1130,265,CA,Calcium,CHEMISTRY,9.2,mg/dL,8.4,10.3,2.2954,2.2954,mmol/L,2.1,2.57,NORMAL,,12,WEEK 24,168,TREATMENT,2014-08-02T13:50,169
CDISCPILOT01,LB,01-701-1130,300,CA,Calcium,CHEMISTRY,8.6,mg/dL,8.4,10.3,2.1457,2.1457,mmol/L,2.1,2.57,NORMAL,,13,WEEK 26,182,TREATMENT,2014-08-16T13:10,183
CDISCPILOT01,LB,01-701-1130,9,CHOL,Cholesterol,CHEMISTRY,181,mg/dL,149,286,4.68066,4.68066,mmol/L,3.85,7.4,NORMAL,Y,1,SCREENING 1,-7,SCREENING,2014-02-09T12:01,-6
CDISCPILOT01,LB,01-701-1130,46,CHOL,Cholesterol,CHEMISTRY,206,mg/dL,149,286,5.32716,5.32716,mmol/L,3.85,7.4,NORMAL,,4,WEEK 2,14,TREATMENT,2014-03-01T08:30,15
CDISCPILOT01,LB,01-701-1130,81,CHOL,Cholesterol,CHEMISTRY,174,mg/dL,149,286,4.49964,4.49964,mmol/L,3.85,7.4,NORMAL,,5,WEEK 4,28,TREATMENT,2014-03-15T13:07,29
CDISCPILOT01,LB,01-701-1130,111,CHOL,Cholesterol,CHEMISTRY,187,mg/dL,149,286,4.83582,4.83582,mmol/L,3.85,7.4,NORMAL,,7,WEEK 6,42,TREATMENT,2014-03-29T09:40,43
CDISCPILOT01,LB,01-701-1130,141,CHOL,Cholesterol,CHEMISTRY,188,mg/dL,149,286,4.86168,4.86168,mmol/L,3.85,7.4,NORMAL,,8,WEEK 8,56,TREATMENT,2014-04-12T12:35,57
CDISCPILOT01,LB,01-701-1130,171,CHOL,Cholesterol,CHEMISTRY,187,mg/dL,149,286,4.83582,4.83582,mmol/L,3.85,7.4,NORMAL,,9,WEEK 12,84,TREATMENT,2014-05-16T11:37,91
CDISCPILOT01,LB,01-701-1130,206,CHOL,Cholesterol,CHEMISTRY,198,mg/dL,149,286,5.12028,5.12028,mmol/L,3.85,7.4,NORMAL,,10,WEEK 16,112,TREATMENT,2014-06-07T13:20,113
CDISCPILOT01,LB,01-701-1130,236,CHOL,Cholesterol,CHEMISTRY,173,mg/dL,149,286,4.47378,4.47378,mmol/L,3.85,7.4,NORMAL,,11,WEEK 20,140,TREATMENT,2014-07-02T15:03,138
CDISCPILOT01,LB,01-701-1130,266,CHOL,Cholesterol,CHEMISTRY,191,mg/dL,149,286,4.93926,4.93926,mmol/L,3.85,7.4,NORMAL,,12,WEEK 24,168,TREATMENT,2014-08-02T13:50,169
CDISCPILOT01,LB,01-701-1130,301,CHOL,Cholesterol,CHEMISTRY,184,mg/dL,149,286,4.75824,4.75824,mmol/L,3.85,7.4,NORMAL,,13,WEEK 26,182,TREATMENT,2014-08-16T13:10,183
CDISCPILOT01,LB,01-701-1130,10,CK,Creatine Kinase,CHEMISTRY,57,U/L,22,198,57,57,U/L,22,198,NORMAL,Y,1,SCREENING 1,-7,SCREENING,2014-02-09T12:01,-6
CDISCPILOT01,LB,01-701-1130,47,CK,Creatine Kinase,CHEMISTRY,53,U/L,22,198,53,53,U/L,22,198,NORMAL,,4,WEEK 2,14,TREATMENT,2014-03-01T08:30,15
CDISCPILOT01,LB,01-701-1130,82,CK,Creatine Kinase,CHEMISTRY,60,U/L,22,198,60,60,U/L,22,198,NORMAL,,5,WEEK 4,28,TREATMENT,2014-03-15T13:07,29
CDISCPILOT01,LB,01-701-1130,112,CK,Creatine Kinase,CHEMISTRY,42,U/L,22,198,42,42,U/L,22,198,NORMAL,,7,WEEK 6,42,TREATMENT,2014-03-29T09:40,43
CDISCPILOT01,LB,01-701-1130,142,CK,Creatine Kinase,CHEMISTRY,52,U/L,22,198,52,52,U/L,22,198,NORMAL,,8,WEEK 8,56,TREATMENT,2014-04-12T12:35,57
CDISCPILOT01,LB,01-701-1130,172,CK,Creatine Kinase,CHEMISTRY,67,U/L,22,198,67,67,U/L,22,198,NORMAL,,9,WEEK 12,84,TREATMENT,2014-05-16T11:37,91
CDISCPILOT01,LB,01-701-1130,207,CK,Creatine Kinase,CHEMISTRY,52,U/L,22,198,52,52,U/L,22,198,NORMAL,,10,WEEK 16,112,TREATMENT,2014-06-07T13:20,113
CDISCPILOT01,LB,01-701-1130,237,CK,Creatine Kinase,CHEMISTRY,53,U/L,22,198,53,53,U/L,22,198,NORMAL,,11,WEEK 20,140,TREATMENT,2014-07-02T15:03,138
CDISCPILOT01,LB,01-701-1130,267,CK,Creatine Kinase,CHEMISTRY,59,U/L,22,198,59,59,U/L,22,198,NORMAL,,12,WEEK 24,168,TREATMENT,2014-08-02T13:50,169
CDISCPILOT01,LB,01-701-1130,302,CK,Creatine Kinase,CHEMISTRY,56,U/L,22,198,56,56,U/L,22,198,NORMAL,,13,WEEK 26,182,TREATMENT,2014-08-16T13:10,183
CDISCPILOT01,LB,01-701-1130,11,CL,Chloride,CHEMISTRY,104,mEq/L,94,112,104,104,mmol/L,94,112,NORMAL,Y,1,SCREENING 1,-7,SCREENING,2014-02-09T12:01,-6
CDISCPILOT01,LB,01-701-1130,48,CL,Chloride,CHEMISTRY,104,mEq/L,94,112,104,104,mmol/L,94,112,NORMAL,,4,WEEK 2,14,TREATMENT,2014-03-01T08:30,15
CDISCPILOT01,LB,01-701-1130,83,CL,Chloride,CHEMISTRY,105,mEq/L,94,112,105,105,mmol/L,94,112,NORMAL,,5,WEEK 4,28,TREATMENT,2014-03-15T13:07,29
CDISCPILOT01,LB,01-701-1130,113,CL,Chloride,CHEMISTRY,103,mEq/L,94,112,103,103,mmol/L,94,112,NORMAL,,7,WEEK 6,42,TREATMENT,2014-03-29T09:40,43
CDISCPILOT01,LB,01-701-1130,143,CL,Chloride,CHEMISTRY,104,mEq/L,94,112,104,104,mmol/L,94,112,NORMAL,,8,WEEK 8,56,TREATMENT,2014-04-12T12:35,57
CDISCPILOT01,LB,01-701-1130,173,CL,Chloride,CHEMISTRY,106,mEq/L,94,112,106,106,mmol/L,94,112,NORMAL,,9,WEEK 12,84,TREATMENT,2014-05-16T11:37,91
CDISCPILOT01,LB,01-701-1130,208,CL,Chloride,CHEMISTRY,103,mEq/L,94,112,103,103,mmol/L,94,112,NORMAL,,10,WEEK 16,112,TREATMENT,2014-06-07T13:20,113
CDISCPILOT01,LB,01-701-1130,238,CL,Chloride,CHEMISTRY,105,mEq/L,94,112,105,105,mmol/L,94,112,NORMAL,,11,WEEK 20,140,TREATMENT,2014-07-02T15:03,138
CDISCPILOT01,LB,01-701-1130,268,CL,Chloride,CHEMISTRY,107,mEq/L,94,112,107,107,mmol/L,94,112,NORMAL,,12,WEEK 24,168,TREATMENT,2014-08-02T13:50,169
CDISCPILOT01,LB,01-701-1130,303,CL,Chloride,CHEMISTRY,103,mEq/L,94,112,103,103,mmol/L,94,112,NORMAL,,13,WEEK 26,182,TREATMENT,2014-08-16T13:10,183
